"Time (s)","Linear Acceleration x (m/s^2)","Linear Acceleration y (m/s^2)","Linear Acceleration z (m/s^2)"
1.156978650E-1,6.804093719E-4,2.228736877E-3,-1.027904153E-1
1.208524480E-1,-2.018593252E-3,4.331588745E-3,-7.510714233E-2
1.260070310E-1,-1.367837191E-2,-4.941940308E-3,-5.269576609E-2
1.311616150E-1,-1.230549812E-2,-1.484584808E-2,-1.932203770E-2
1.363161980E-1,-3.148524463E-2,-7.267951965E-3,2.591758966E-2
1.414707810E-1,-4.403477907E-2,-2.055644989E-2,3.146877885E-2
1.466158850E-1,-3.789769858E-2,-5.903244019E-3,4.247647524E-2
1.516695310E-1,-3.663114458E-2,1.607036591E-2,3.255605698E-2
1.567230730E-1,-3.423465043E-2,3.254127502E-2,1.287275553E-2
1.617766670E-1,-4.812178016E-2,2.496719360E-3,-1.045244932E-2
1.668302600E-1,-3.498752415E-2,1.235961914E-3,-1.091074944E-2
1.718839060E-1,-2.687354386E-2,5.782127380E-3,-1.711001992E-2
1.769375000E-1,-2.480353415E-2,1.708316803E-2,4.648774862E-3
1.819910420E-1,-1.005561650E-2,1.184749603E-2,1.291039586E-2
1.870446880E-1,-7.477179170E-3,6.803512573E-3,1.519742608E-2
1.920982810E-1,-1.480311155E-3,8.886337280E-3,1.601743698E-2
1.971518230E-1,7.878988981E-4,9.749412537E-3,-5.107313395E-3
2.022054170E-1,-8.612364531E-3,4.804611206E-3,-3.159800172E-2
2.072590630E-1,-1.083151996E-2,1.172065735E-3,-4.910305142E-2
2.123126040E-1,2.228289843E-3,-8.160591125E-3,-6.735886633E-2
2.173662500E-1,-8.322879672E-3,-2.118110657E-3,-5.941942334E-2
2.224198440E-1,3.760069609E-3,6.084442139E-3,-6.804299355E-2
2.274733850E-1,2.768665552E-3,-2.239227295E-3,-6.813944876E-2
2.325269790E-1,-3.916472197E-3,1.412963867E-2,-6.932897866E-2
2.375806250E-1,3.595009446E-3,3.260612488E-3,-5.879715085E-2
2.426342190E-1,1.679974794E-2,-5.001068115E-3,-7.657907903E-2
2.476878130E-1,3.316820413E-2,-8.391380310E-3,-9.982854128E-2
2.527414060E-1,3.041028976E-2,-5.865097046E-3,-1.260448694E-1
2.577950000E-1,3.588693589E-2,-1.626300812E-2,-1.201848984E-1
2.628485940E-1,5.990073085E-2,-1.824092865E-2,-1.216171458E-1
2.679021880E-1,3.989610821E-2,-9.650230408E-3,-9.747989476E-2
2.729557810E-1,3.075280786E-2,1.514434814E-2,-9.038354456E-2
2.780093750E-1,1.837635040E-2,1.130390167E-2,-7.193045318E-2
2.830629690E-1,1.665180922E-2,-6.517410278E-3,-4.221747816E-2
2.881165630E-1,6.715491414E-3,6.511688232E-3,-3.664198518E-2
2.931701560E-1,4.833415151E-4,-7.698059082E-3,-2.188405395E-2
2.982237500E-1,7.224880159E-3,3.016471863E-3,-1.461429894E-2
3.032773440E-1,-1.777053624E-2,-1.739501953E-3,-8.500054479E-3
3.083309380E-1,-2.329725027E-2,1.473331451E-2,-2.817638218E-2
3.133845310E-1,-1.582185924E-2,1.327610016E-2,-9.677976370E-3
3.184381250E-1,-1.651841402E-2,7.148742676E-3,-7.408410311E-4
3.234917190E-1,-6.612658501E-3,3.487586975E-3,-2.649843693E-3
3.285453130E-1,-8.718550205E-3,8.123397827E-3,1.628398895E-4
3.335989060E-1,-9.554088116E-3,-6.139755249E-3,2.897292376E-3
3.386525000E-1,-1.760347188E-2,2.195358276E-3,7.744580507E-4
3.437060940E-1,-3.263272345E-2,-3.733634949E-3,-1.306954026E-2
3.487596880E-1,-4.962708056E-2,-8.382797241E-3,-2.455903590E-2
3.538132810E-1,-6.990894675E-2,8.243560791E-3,-3.242662549E-2
3.588668750E-1,-9.351059794E-2,9.293556213E-3,-3.791134059E-2
3.639204690E-1,-8.259809017E-2,-8.521080017E-3,-3.877343237E-2
3.689740630E-1,-9.438712895E-2,1.047134399E-3,-2.320554852E-2
3.740276560E-1,-1.097515821E-1,-2.254104614E-2,-1.737019420E-2
3.790812500E-1,-1.261207610E-1,-1.040458679E-2,-9.462654591E-3
3.841348440E-1,-1.244490296E-1,1.452541351E-2,1.146656275E-2
3.891884380E-1,-1.368215531E-1,1.078605652E-2,9.664326906E-3
3.942420310E-1,-1.465197951E-1,8.279800415E-3,1.044589281E-2
3.992956250E-1,-1.478345692E-1,-4.812240601E-3,7.678255439E-3
4.043492190E-1,-1.433321685E-1,-2.374649048E-3,1.310917735E-2
4.094028130E-1,-1.377027929E-1,-1.532173157E-2,2.566109598E-2
4.144564060E-1,-1.416555643E-1,-1.510620117E-2,-5.706220865E-3
4.195100000E-1,-1.147428900E-1,2.825737000E-3,5.296753347E-2
4.245635940E-1,-7.308098674E-2,3.984451294E-3,1.201536506E-1
4.296171880E-1,-3.438442945E-2,-2.323532104E-2,7.813358307E-2
4.346707810E-1,-5.050501227E-2,-5.208015442E-3,6.634216011E-2
4.397243750E-1,-7.197280228E-2,1.731967926E-2,4.183892906E-2
4.447779690E-1,-8.438710868E-2,1.829528809E-2,-7.002785802E-3
4.498315630E-1,-4.350720346E-2,-4.392623901E-3,-3.005531430E-2
4.548851560E-1,1.201659441E-2,-9.069442749E-3,3.104962409E-2
4.599387500E-1,-1.844133437E-2,1.114654541E-2,5.449056625E-2
4.649923440E-1,-1.901845634E-2,8.660316467E-3,6.665080786E-2
4.700459380E-1,-9.004727006E-3,2.656936646E-3,6.792546809E-2
4.750995310E-1,-3.214442730E-2,-2.094268799E-3,6.570659578E-2
4.801531250E-1,-3.129744530E-2,-4.426956177E-3,3.169319034E-2
4.852067190E-1,-1.611135900E-2,-5.545616150E-3,4.077106714E-4
4.902603130E-1,-1.056714356E-2,1.630783081E-3,-1.032984257E-2
4.953139060E-1,-1.114106178E-2,7.542610168E-3,-3.875137866E-2
5.003675000E-1,-1.048092544E-2,1.575756073E-2,-2.653750777E-2
5.054210940E-1,-1.456286013E-2,8.489608765E-3,-2.024224401E-2
5.104746880E-1,-1.505187154E-2,3.668785095E-3,2.545088530E-3
5.155282810E-1,-1.114368439E-3,2.454757690E-3,7.385939360E-3
5.205818750E-1,1.018807292E-2,-1.177787781E-2,1.333196461E-2
5.256354690E-1,-1.164019108E-3,-9.272575378E-3,3.677436709E-2
5.306890630E-1,4.108354449E-3,-4.426002502E-3,8.974254131E-3
5.357426560E-1,5.803778768E-3,-7.919311523E-3,-7.967829704E-3
5.407962500E-1,-4.306882620E-3,6.394386292E-3,-3.168353438E-2
5.458498440E-1,-1.074436307E-2,1.819229126E-2,-4.205237329E-2
5.509034380E-1,-1.706092060E-2,1.920890808E-2,-4.512254894E-2
5.559570310E-1,-1.129688323E-2,3.623008728E-3,-2.201381326E-2
5.610106250E-1,-6.804421544E-3,2.412796021E-3,-2.166897058E-2
5.660642190E-1,2.310797572E-3,-1.775264740E-2,2.351090312E-3
5.711178130E-1,5.411162972E-3,-6.900787354E-3,1.541131735E-2
5.761714060E-1,7.206380367E-3,-8.926391602E-4,9.413957596E-4
5.812250000E-1,-1.686230302E-3,1.217460632E-2,7.775127888E-4
5.862785940E-1,1.801079512E-2,9.708404541E-3,-2.436643839E-2
5.913321880E-1,-2.797260880E-3,1.082134247E-2,-5.393511057E-2
5.963857810E-1,8.655071259E-3,1.248359680E-3,-5.828492343E-2
6.014393750E-1,2.125170827E-2,-1.120567322E-3,-6.602314115E-2
6.064929690E-1,2.300055325E-2,1.076221466E-2,-5.222161114E-2
6.115465630E-1,9.402543306E-3,-5.932807922E-3,-2.545000613E-2
6.166001560E-1,5.401089787E-3,7.185935974E-3,-3.858521581E-3
6.216537500E-1,1.316592097E-2,9.509086609E-3,-1.806883514E-2
6.267073440E-1,2.209581435E-2,-1.191520691E-2,-2.996684611E-2
6.317609380E-1,2.267460525E-2,-2.302169800E-3,-3.930018842E-2
6.368145310E-1,2.192641795E-2,-4.639625549E-3,-6.174990535E-2
6.418681250E-1,1.305793226E-2,-2.238845825E-2,-7.788440585E-2
6.469217190E-1,1.919999719E-3,1.105022430E-2,-8.307042718E-2
6.519753130E-1,2.763584256E-3,-9.213447571E-3,-7.968971133E-2
6.570289060E-1,7.204592228E-3,-8.144378662E-4,-6.341716647E-2
6.620825000E-1,2.580845356E-2,1.582050323E-2,-5.546844006E-2
6.671360940E-1,2.530910075E-2,2.698898315E-4,-3.938260674E-2
6.721896880E-1,1.651816070E-2,-1.514911652E-2,-2.825587988E-2
6.772432810E-1,1.480188966E-2,-4.325866699E-3,-2.796605229E-2
6.822968750E-1,2.626498044E-2,-9.019851685E-3,-2.301992476E-2
6.873504690E-1,3.166934848E-2,-2.673530579E-2,-2.630147338E-2
6.924040630E-1,2.743925154E-2,-1.569747925E-3,-5.689036846E-2
6.974576560E-1,3.050400317E-2,1.151466370E-2,-5.622342229E-2
7.025112500E-1,3.596235812E-2,7.870674133E-3,-5.069303513E-2
7.075648440E-1,4.600183666E-2,-1.830291748E-2,-2.381174266E-2
7.126184380E-1,4.901532829E-2,-1.220035553E-2,-1.865908504E-2
7.176720310E-1,2.939017117E-2,-8.521080017E-3,-8.875504136E-3
7.227256250E-1,3.006443381E-2,-4.876136780E-3,6.868675351E-3
7.277792190E-1,3.783868253E-2,2.303123474E-3,6.881847978E-3
7.328328130E-1,3.961208463E-2,4.673957825E-3,1.398649812E-2
7.378864060E-1,4.373043776E-2,8.215904236E-3,4.337891936E-3
7.429400000E-1,2.885152400E-2,8.163452148E-3,-6.296381354E-3
7.479935940E-1,2.838821709E-2,-3.758430481E-3,-1.321905851E-2
7.530471880E-1,2.916088700E-2,-2.524375916E-3,-1.411876082E-2
7.581007810E-1,3.933230042E-2,2.260208130E-3,3.981620073E-3
7.631543750E-1,3.756466508E-2,1.293849945E-2,2.197778225E-2
7.682079690E-1,5.129015446E-2,-1.327133179E-2,3.748100996E-2
7.732615630E-1,4.709172249E-2,-1.907730103E-2,4.554802179E-2
7.783151560E-1,5.598606169E-2,-1.533889771E-2,2.976097167E-2
7.833687500E-1,4.818932712E-2,-3.318786621E-3,3.186805546E-2
7.884223440E-1,4.633137584E-2,-3.272056580E-3,1.736789942E-2
7.934759380E-1,4.089741409E-2,8.641242981E-3,-2.871200442E-3
7.985295310E-1,4.273776710E-2,2.045536041E-2,-2.353340387E-4
8.035831250E-1,4.571995139E-2,9.614944458E-3,1.788645983E-2
8.086367190E-1,4.391354322E-2,-1.063251495E-2,1.445934176E-2
8.136903130E-1,5.040244758E-2,-9.343147278E-3,3.352540731E-2
8.187439060E-1,5.452258885E-2,-9.403228760E-4,3.588822484E-2
8.237975000E-1,5.736017227E-2,-9.225845337E-3,4.162557423E-2
8.288510940E-1,5.199964345E-2,-1.150131226E-2,3.772683442E-2
8.339046880E-1,5.720041692E-2,-1.890182495E-3,3.865361214E-2
8.389582810E-1,4.447545111E-2,2.891540527E-3,2.050323784E-2
8.440118750E-1,4.506897926E-2,7.636070251E-3,2.869856358E-2
8.490654690E-1,5.389012396E-2,7.588386536E-3,2.032627165E-2
8.541190630E-1,4.722261429E-2,1.228809357E-2,2.628539503E-2
8.591726560E-1,4.662130773E-2,-5.600929260E-3,3.912034631E-2
8.642262500E-1,5.906736851E-2,-4.347801208E-3,3.769387305E-2
8.692798440E-1,6.428624690E-2,-9.043693542E-3,4.703763127E-2
8.743334380E-1,5.877795815E-2,5.493164062E-4,6.919497252E-2
8.793870310E-1,6.745424867E-2,6.501197815E-3,4.599800706E-2
8.844406250E-1,6.418889761E-2,1.724243164E-3,3.349791467E-2
8.894942190E-1,6.327849627E-2,-6.580352783E-3,1.528657973E-2
8.945478130E-1,4.823736846E-2,-4.129409790E-3,8.191466331E-4
8.996014060E-1,6.418511271E-2,-1.000976562E-2,-6.299749017E-3
9.046550000E-1,7.762511075E-2,-8.720397949E-3,8.849203587E-4
9.097085940E-1,6.479318440E-2,-2.694129944E-3,1.284974813E-2
9.147621880E-1,7.824288309E-2,-8.586883545E-3,2.337522805E-2
9.198157810E-1,7.023003697E-2,-2.555847168E-3,3.020811081E-2
9.248693750E-1,5.508555472E-2,6.982803345E-3,1.796025038E-2
9.299229690E-1,6.135863066E-2,-1.323509216E-2,-1.082001626E-2
9.349765630E-1,7.703031600E-2,1.137733459E-3,2.232179046E-3
9.400301560E-1,5.709530413E-2,5.897521973E-3,-1.565808058E-2
9.450837500E-1,5.869339406E-2,-5.999565125E-3,-4.408323765E-2
9.501373440E-1,6.499655545E-2,-1.067829132E-2,-2.711702883E-2
9.551909380E-1,7.366944849E-2,-3.448486328E-3,-2.445878088E-2
9.602445310E-1,6.453786790E-2,-1.408481598E-2,-2.532510459E-2
9.652981250E-1,7.668438554E-2,-8.014678955E-3,-2.863295376E-2
9.703517190E-1,5.908063054E-2,-3.179550171E-3,-1.420021057E-2
9.754053130E-1,7.128666341E-2,4.253387451E-4,-2.236516774E-2
9.804589060E-1,7.148793340E-2,9.936332703E-3,-2.338701487E-2
9.855125000E-1,8.005924523E-2,1.343345642E-2,-1.960501075E-2
9.905660940E-1,7.538002729E-2,9.777069092E-3,-3.372146189E-2
9.956196880E-1,7.676626742E-2,9.712219238E-3,-2.746407688E-2
1.000673281E0,7.333216071E-2,4.899024963E-3,-3.783249855E-2
1.005726875E0,8.420141041E-2,-4.620552063E-3,-3.870898485E-2
1.010780469E0,8.079741895E-2,-8.124351501E-3,-3.720234334E-2
1.015834063E0,7.608179748E-2,-8.044242859E-3,-2.247065306E-2
1.020887656E0,8.219499886E-2,-8.382797241E-4,-2.221247554E-2
1.025941250E0,7.871390879E-2,-6.752014160E-3,-1.956854761E-2
1.030994844E0,6.929896772E-2,7.565498352E-3,-9.957581758E-3
1.036048438E0,7.412964106E-2,-7.896423340E-4,-2.896387875E-2
1.041102031E0,7.540528476E-2,7.540702820E-3,-3.575855494E-2
1.046155625E0,6.464934349E-2,5.115509033E-3,-4.610219598E-2
1.051209219E0,7.317212224E-2,1.102352142E-2,-5.395591259E-2
1.056262813E0,7.456155121E-2,5.009651184E-3,-4.737867415E-2
1.061316406E0,6.989888847E-2,-9.565353394E-4,-4.796288908E-2
1.066370000E0,9.137490392E-2,2.498626709E-4,-2.484679222E-2
1.071423594E0,9.255215526E-2,3.823280334E-3,-1.975969970E-2
1.076477188E0,8.053846657E-2,-6.878852844E-3,-1.243394613E-2
1.081530781E0,8.051209152E-2,-8.745193481E-4,-2.763155103E-2
1.086584375E0,8.637559414E-2,3.318786621E-4,-1.903697848E-2
1.091637969E0,8.377520740E-2,1.339530945E-2,-3.063346446E-2
1.096691563E0,8.128689229E-2,1.092052460E-2,-4.330559075E-2
1.101745156E0,7.530412078E-2,6.088256836E-3,-2.009290457E-2
1.106798750E0,7.403112948E-2,2.483367920E-3,-1.612493396E-2
1.111852344E0,6.690695882E-2,-8.213043213E-3,-1.098985970E-2
1.116905938E0,7.516759634E-2,-1.012802124E-3,5.851477385E-3
1.121959531E0,8.585615456E-2,4.938125610E-3,2.390758693E-2
1.127013125E0,7.969887555E-2,-1.030921936E-3,9.624451399E-3
1.132066719E0,8.917807043E-2,-4.572868347E-3,9.661883116E-3
1.137120313E0,9.716369957E-2,-5.716323853E-3,2.277125418E-2
1.142173906E0,7.669821382E-2,-3.283500671E-3,2.505679429E-2
1.147227500E0,6.585381925E-2,1.099491119E-2,6.046012044E-3
1.152281094E0,7.995472848E-2,2.598762512E-3,1.395195723E-3
1.157334688E0,8.093982935E-2,-1.403522491E-2,1.579044759E-2
1.162388281E0,7.479456067E-2,-3.230094910E-3,2.779775858E-2
1.167441875E0,6.752724946E-2,5.111694336E-3,2.783292532E-2
1.172495469E0,8.527962863E-2,3.280639648E-4,4.912965000E-2
1.177549063E0,9.563933313E-2,-3.232955933E-3,5.723503232E-2
1.182602656E0,7.620626688E-2,7.484436035E-3,3.069724143E-2
1.187656250E0,8.191071451E-2,1.811408997E-2,3.757494688E-2
1.192709844E0,7.924304903E-2,-3.394126892E-3,3.719732165E-2
1.197763438E0,7.658112049E-2,2.577781677E-3,6.018012762E-3
1.202817031E0,7.744078338E-2,2.562522888E-3,9.582862258E-3
1.207870625E0,8.068221807E-2,-1.017570496E-3,3.582328558E-2
1.212924219E0,7.090166211E-2,-4.567146301E-3,3.813613951E-2
1.217977813E0,6.595057249E-2,7.345199585E-3,4.753671587E-2
1.223031406E0,8.109901845E-2,3.728866577E-3,5.068059266E-2
1.228085000E0,8.910597861E-2,-3.417968750E-3,6.341719627E-2
1.233138594E0,7.312293351E-2,-1.169395447E-2,4.387535155E-2
1.238192188E0,6.323771179E-2,-4.469871521E-3,3.044582903E-2
1.243245781E0,7.714842260E-2,-1.155090332E-2,2.183347940E-2
1.248299375E0,7.315324247E-2,1.607894897E-3,8.636310697E-3
1.253352969E0,8.580803871E-2,7.533073425E-3,2.699509263E-3
1.258406563E0,8.417366445E-2,6.287574768E-3,4.073455930E-2
1.263460156E0,9.303864837E-2,2.985000610E-4,3.577718139E-2
1.268513750E0,6.516888738E-2,-2.225208282E-2,4.020875692E-2
1.273567344E0,8.731020987E-2,-6.631851196E-3,4.219639301E-2
1.278620938E0,7.599970698E-2,5.502700806E-4,4.290579259E-2
1.283674531E0,7.782548666E-2,-6.399154663E-4,3.191930056E-2
1.288728125E0,9.617915750E-2,-3.009796143E-3,1.388649642E-2
1.293781719E0,8.234500885E-2,1.762390137E-3,1.028005779E-2
1.298835313E0,8.291572332E-2,5.311965942E-3,1.729595661E-2
1.303888906E0,7.984383404E-2,8.830070496E-3,4.057049751E-3
1.308942500E0,7.573448122E-2,1.635551453E-3,4.079878330E-3
1.313996094E0,6.205727160E-2,-2.805709839E-2,2.192406356E-2
1.319049688E0,6.861110032E-2,3.039360046E-3,2.416989207E-2
1.324103281E0,7.988885045E-2,-1.954174042E-2,1.449605823E-2
1.329156875E0,7.573239505E-2,-3.946304321E-3,1.083913445E-2
1.334210469E0,7.503606379E-2,2.021789551E-3,8.324459195E-3
1.339264063E0,7.079841197E-2,2.218723297E-2,-8.551165462E-3
1.344317656E0,6.655208766E-2,1.488208771E-2,-9.822726250E-3
1.349371250E0,5.753099918E-2,1.698493958E-3,-3.943862021E-2
1.354424844E0,6.649670005E-2,-6.626129150E-3,-3.911605477E-2
1.359478438E0,7.056514919E-2,-1.827239990E-3,-3.397105634E-2
1.364532031E0,7.227022946E-2,-6.564140320E-3,-3.005662560E-2
1.369585625E0,6.679429114E-2,-1.763343811E-3,-1.797023416E-2
1.374639219E0,6.952263415E-2,-1.480960846E-2,-1.669815183E-2
1.379692813E0,6.878833473E-2,-2.818107605E-3,-1.779541373E-2
1.384746406E0,6.798285246E-2,-1.110553741E-2,-3.442287445E-2
1.389800000E0,6.604237854E-2,-7.452964783E-3,-3.184297681E-2
1.394853594E0,6.405927241E-2,-3.835678101E-3,-3.741115332E-2
1.399907188E0,5.498334765E-2,5.687713623E-3,-3.705982864E-2
1.404960781E0,5.675813556E-2,-2.674102783E-3,-4.372745752E-2
1.410014375E0,5.367974937E-2,9.211540222E-3,-2.422331274E-2
1.415067969E0,6.601297855E-2,6.752014160E-3,-1.675303280E-2
1.420121563E0,6.276607513E-2,7.514953613E-4,-1.654306054E-2
1.425175156E0,7.131148875E-2,-1.641273499E-3,-1.510211825E-2
1.430228750E0,4.785528779E-2,-2.820014954E-3,-2.444787323E-2
1.435282344E0,4.950664937E-2,-1.619338989E-3,-1.936617494E-2
1.440335938E0,5.347336829E-2,6.695747375E-3,-4.176533222E-2
1.445389531E0,5.510948598E-2,4.258155823E-3,-3.656843305E-2
1.450443125E0,3.880557418E-2,6.494522095E-4,-2.894937992E-2
1.455496719E0,6.062255800E-2,3.005981445E-3,-3.562474251E-2
1.460550313E0,4.783158004E-2,1.721286774E-2,-1.842825115E-2
1.465603906E0,5.651582778E-2,5.189895630E-3,-6.379261613E-3
1.470657500E0,4.132476449E-2,-3.176689148E-3,-1.797646284E-2
1.475711094E0,4.529915750E-2,2.777099609E-3,-9.417429566E-3
1.480764688E0,5.511599779E-2,7.490158081E-3,1.414701343E-3
1.485818281E0,4.236990213E-2,9.789466858E-3,-7.874384522E-3
1.490871875E0,4.270008206E-2,1.206970215E-2,-1.006698608E-2
1.495925469E0,5.132220685E-2,1.077079773E-2,-2.052032948E-2
1.500979063E0,5.385985970E-2,2.358436584E-3,-9.535714984E-3
1.506032656E0,3.627106547E-2,-8.359909058E-3,-1.993492246E-2
1.511086250E0,3.663562238E-2,-5.929946899E-3,-1.601715386E-2
1.516139844E0,3.934134543E-2,-3.081989288E-2,-9.802997112E-3
1.521193438E0,3.484228253E-2,-8.025169373E-3,-1.838803291E-5
1.526247031E0,2.930010855E-2,-4.410743713E-3,2.280351520E-2
1.531300625E0,4.745522141E-2,-6.760597229E-3,1.442034543E-2
1.536354219E0,3.104802966E-2,-1.971244812E-3,1.570868492E-2
1.541407813E0,2.424328029E-2,-1.970291138E-3,3.897696733E-3
1.546461406E0,3.419081867E-2,9.902954102E-3,7.648110390E-3
1.551515000E0,2.019174397E-2,6.243705750E-3,-1.706689596E-3
1.556568594E0,2.644518018E-2,-9.479522705E-4,2.461433411E-2
1.561622188E0,2.327118814E-2,1.419067383E-3,3.651674092E-2
1.566675781E0,2.123546600E-2,-1.047897339E-2,3.876313567E-2
1.571729375E0,2.510669827E-2,-1.159477234E-2,4.691103101E-2
1.576782969E0,2.544431388E-2,-3.201484680E-3,5.496028066E-2
1.581836563E0,2.684552968E-2,6.304740906E-3,3.676657379E-2
1.586890156E0,1.881374419E-2,1.217556000E-2,3.893473744E-2
1.591943750E0,2.859519422E-2,7.312774658E-3,3.035628796E-2
1.596997344E0,3.120259941E-2,2.488136292E-3,3.146664798E-2
1.602050938E0,1.360766590E-2,3.639221191E-3,3.256748617E-2
1.607104531E0,1.987095177E-2,-3.527641296E-3,3.239671886E-2
1.612158125E0,2.727006376E-2,-8.263587952E-3,4.420468211E-2
1.617211719E0,9.601742029E-3,-3.460884094E-3,3.798592091E-2
1.622265313E0,2.419213951E-2,4.864692688E-3,4.478606582E-2
1.627318906E0,2.309222519E-2,-1.418590546E-2,5.160467327E-2
1.632372500E0,3.099381924E-3,-1.882934570E-2,4.057569802E-2
1.637426094E0,-7.214814425E-3,-4.440307617E-3,4.260596633E-2
1.642479688E0,-3.379940987E-3,6.265640259E-3,3.395052254E-2
1.647533281E0,1.122757792E-2,1.332378387E-2,1.584033668E-2
1.652586875E0,-2.776056528E-3,8.450508118E-3,1.815231144E-2
1.657640469E0,-3.713041544E-3,-8.255958557E-3,2.398973703E-2
1.662694063E0,1.454952359E-2,2.483367920E-3,3.216916323E-2
1.667747656E0,-1.900643110E-3,2.450942993E-3,3.422454000E-2
1.672801250E0,1.904025674E-3,9.536743164E-3,2.093529701E-2
1.677854844E0,1.648429036E-2,-1.310729980E-2,2.660058439E-2
1.682908438E0,1.657551527E-2,-2.326965332E-3,3.456141055E-2
1.687962031E0,2.452373505E-3,-1.537704468E-2,4.576042295E-3
1.693015625E0,-9.255543351E-3,-3.391265869E-3,4.426017404E-3
1.698069219E0,-8.889645338E-3,3.746032715E-3,1.275286078E-2
1.703122813E0,5.688875914E-3,-2.234458923E-3,4.331454635E-3
1.708176406E0,-1.784110069E-2,-2.228736877E-3,7.850527763E-3
1.713230000E0,-1.385821402E-2,-5.784034729E-3,6.576195359E-3
1.718283594E0,-1.707531512E-2,1.443481445E-2,1.350168884E-2
1.723337188E0,-5.973711610E-3,-5.878448486E-3,3.565996885E-4
1.728390781E0,1.382440329E-3,4.842758179E-3,-1.005440950E-3
1.733444375E0,-1.506483555E-2,4.100799561E-5,7.291272283E-3
1.738497969E0,-1.944220066E-2,1.071262360E-2,-8.282080293E-3
1.743551563E0,-3.207811713E-2,-1.261711121E-3,-9.299740195E-3
1.748605156E0,-1.500785351E-2,2.295494080E-3,-1.155671477E-2
1.753658750E0,-1.707267761E-2,-1.673030853E-2,-1.266807318E-2
1.758712344E0,-2.741402388E-2,1.621246338E-5,-1.972027123E-2
1.763765938E0,-1.864576340E-2,-1.186752319E-2,-1.835884154E-2
1.768819531E0,-3.026892245E-2,-2.286911011E-3,-1.938410103E-2
1.773873125E0,-2.636259794E-2,-7.030487061E-3,-2.274434268E-2
1.778926719E0,-2.264201641E-3,7.259368896E-3,-9.548872709E-3
1.783980313E0,-1.995892823E-2,-1.655483246E-2,-2.381102741E-2
1.789033906E0,-2.677913010E-2,6.126403809E-3,-4.268869758E-2
1.794087500E0,-1.813749969E-2,4.871368408E-3,-3.746901453E-2
1.799141094E0,-3.096610308E-2,-1.180458069E-2,-2.757519484E-2
1.804194688E0,-3.055438399E-2,-8.159637451E-3,-4.034845531E-2
1.809248281E0,-2.303876728E-2,-2.170562744E-3,-4.228626192E-2
1.814301875E0,-2.864422649E-2,-4.543304443E-3,-1.924951375E-2
1.819355469E0,-2.351935208E-2,2.288818359E-4,-2.500036359E-2
1.824409063E0,-2.559018135E-2,1.564407349E-2,-3.304737806E-2
1.829462656E0,-2.644056082E-2,1.075077057E-2,-3.149996698E-2
1.834516250E0,-2.965772897E-2,2.336502075E-3,-2.995012701E-2
1.839569844E0,-3.882848471E-2,-9.570121765E-3,-3.311598301E-2
1.844623438E0,-4.314592481E-2,-8.319854736E-3,-4.108025134E-2
1.849677031E0,-3.182908148E-2,1.547813416E-2,-3.592033684E-2
1.854730625E0,-3.144176304E-2,-9.918212891E-5,-1.998387277E-2
1.859784219E0,-2.034343779E-2,1.413059235E-2,-2.324880660E-2
1.864837813E0,-2.717168629E-2,-4.996299744E-3,-1.455405354E-2
1.869891406E0,-4.228507727E-2,1.164817810E-2,1.113817096E-3
1.874945000E0,-4.065317661E-2,-3.894805908E-3,-5.978703499E-3
1.879998594E0,-4.022098333E-2,-6.249427795E-3,-8.248209953E-3
1.885052188E0,-5.753862858E-2,-1.095867157E-2,-8.124992251E-3
1.890105781E0,-4.747042805E-2,1.167106628E-2,-1.625217497E-2
1.895159375E0,-3.756140172E-2,1.155662537E-2,-7.601708174E-3
1.900212969E0,-4.306042194E-2,1.263046265E-2,1.048871875E-2
1.905266563E0,-4.722133279E-2,6.399154663E-4,1.079991460E-3
1.910320156E0,-4.909249395E-2,-2.942085266E-3,7.152378559E-3
1.915373750E0,-4.504422843E-2,1.131153107E-2,2.149814367E-2
1.920427344E0,-6.592736393E-2,-1.372528076E-2,3.447711468E-2
1.925480938E0,-5.225797743E-2,-8.874893188E-3,1.400333643E-2
1.930534531E0,-4.935589433E-2,-6.441116333E-3,1.400141418E-2
1.935588125E0,-5.232104659E-2,-1.114940643E-2,1.871836185E-2
1.940641719E0,-4.935730994E-2,4.362106323E-3,1.394426823E-2
1.945695313E0,-6.303764135E-2,1.938819885E-3,2.222226560E-2
1.950748906E0,-6.946673244E-2,7.843017578E-3,2.104036510E-2
1.955802500E0,-6.995256990E-2,2.082157135E-2,3.289572895E-2
1.960856094E0,-5.731606483E-2,8.763313293E-3,3.395351768E-2
1.965909688E0,-4.948648810E-2,2.743721008E-3,4.326727986E-2
1.970963281E0,-6.318059564E-2,3.309249878E-4,3.833396733E-2
1.976016875E0,-6.492039561E-2,1.337146759E-2,4.050357640E-2
1.981070469E0,-6.657109410E-2,1.378059387E-3,3.907829523E-2
1.986124063E0,-5.636718124E-2,4.918098450E-3,3.876134753E-2
1.991177656E0,-5.580573529E-2,3.676414490E-3,2.547985315E-2
1.996231250E0,-6.228066981E-2,-5.862236023E-3,5.499832332E-2
2.001284844E0,-6.751390547E-2,-3.454208374E-3,4.045522213E-2
2.006338438E0,-8.220013976E-2,-1.174545288E-2,4.486016929E-2
2.011392031E0,-7.656762749E-2,3.772735596E-3,3.155882657E-2
2.016445625E0,-5.911161005E-2,8.478164673E-3,3.256769478E-2
2.021499219E0,-7.029054314E-2,8.397102356E-3,3.942805529E-2
2.026552813E0,-7.662997395E-2,1.069164276E-2,4.387135804E-2
2.031606406E0,-7.337232679E-2,-3.650665283E-3,4.698567092E-2
2.036660000E0,-8.323056251E-2,-6.866455078E-5,3.594988585E-2
2.041713594E0,-8.944605291E-2,-7.629394531E-5,3.322450817E-2
2.046767188E0,-7.769713551E-2,-7.206916809E-3,3.653313220E-2
2.051820781E0,-7.681951672E-2,-1.190567017E-2,2.558486164E-2
2.056874375E0,-6.158399582E-2,1.241683960E-3,2.425438166E-2
2.061927969E0,-6.435813755E-2,-7.089614868E-3,3.241598606E-2
2.066981563E0,-6.476429105E-2,4.832267761E-3,2.848806977E-2
2.072035156E0,-7.347757369E-2,7.159233093E-3,1.990464330E-2
2.077088750E0,-7.142010331E-2,4.717826843E-3,2.088902891E-2
2.082142344E0,-6.703456491E-2,1.109123230E-3,4.530996084E-4
2.087195938E0,-7.688406855E-2,-1.315402985E-2,6.379127502E-3
2.092249531E0,-6.527070701E-2,-4.743576050E-3,3.960669041E-3
2.097303125E0,-7.267235965E-2,-2.608013153E-2,-1.923516393E-3
2.102356719E0,-6.693802774E-2,2.450942993E-4,5.224093795E-3
2.107410313E0,-7.785574347E-2,-9.259223938E-3,1.459540427E-2
2.112463906E0,-7.926183194E-2,-1.631259918E-2,1.215384901E-2
2.117517500E0,-7.000309974E-2,-1.380920410E-2,1.198565960E-2
2.122571094E0,-8.454754949E-2,-7.766723633E-3,-6.347894669E-6
2.127624688E0,-9.175691754E-2,8.912086487E-3,-9.660109878E-3
2.132678281E0,-7.875590026E-2,6.458282471E-3,-8.458882570E-3
2.137731875E0,-8.732228726E-2,5.209922791E-3,-7.222726941E-3
2.142785469E0,-9.560487419E-2,3.973960876E-3,-3.332954645E-2
2.147839010E0,-9.441226721E-2,-8.153915405E-4,-2.118693292E-2
2.152892604E0,-1.003839821E-1,6.303787231E-3,-3.120064735E-3
2.157946250E0,-9.435824305E-2,6.245613098E-3,-1.928135753E-3
2.162999792E0,-7.882494479E-2,-4.494667053E-3,-1.499071717E-2
2.168053438E0,-7.757493854E-2,-9.214401245E-3,-1.242162287E-2
2.173107031E0,-8.482799679E-2,-2.457523346E-2,-2.183610201E-2
2.178160625E0,-1.027045920E-1,-3.011703491E-3,-3.350105882E-2
2.183214219E0,-7.643453032E-2,1.006221771E-2,-2.359546721E-2
2.188267760E0,-8.957029879E-2,1.471805573E-2,-2.929443121E-2
2.193321406E0,-9.413753450E-2,2.171039581E-2,-4.199340940E-2
2.198374948E0,-8.099637926E-2,1.439952850E-2,-3.571423888E-2
2.203428594E0,-8.453776687E-2,1.189804077E-2,-2.107173204E-2
2.208482188E0,-9.275223315E-2,-2.451896667E-3,-4.103675485E-2
2.213535729E0,-8.196654171E-2,-4.815101624E-3,-4.773263633E-2
2.218589323E0,-7.355316728E-2,-3.598213196E-3,-2.099809051E-2
2.223642969E0,-8.899741620E-2,-5.951881409E-3,-1.946052909E-2
2.228696563E0,-9.477131814E-2,1.189613342E-2,-1.919862628E-2
2.233750104E0,-9.332767129E-2,1.297760010E-2,-3.506243229E-3
2.238803698E0,-9.675086290E-2,9.899139404E-4,-1.521737874E-2
2.243857344E0,-1.036183089E-1,-1.399040222E-3,-2.689237893E-2
2.248910885E0,-8.665680140E-2,1.047611237E-2,-2.536691725E-2
2.253964479E0,-9.827876091E-2,1.869010925E-2,-1.078023016E-2
2.259018125E0,-1.050411165E-1,4.280090332E-3,-1.521781087E-2
2.264071667E0,-9.741050750E-2,-2.885818481E-3,-1.964822412E-2
2.269125260E0,-9.833611548E-2,6.895065308E-4,5.604147911E-3
2.274178854E0,-9.436928481E-2,6.614685059E-3,3.237694502E-3
2.279232500E0,-7.746846229E-2,-5.702972412E-4,-7.312700152E-3
2.284286042E0,-7.373537123E-2,-1.600646973E-2,-2.373188734E-3
2.289339635E0,-9.132543206E-2,-1.350688934E-2,-3.319591284E-3
2.294393229E0,-8.734139055E-2,-1.102733612E-2,-7.272660732E-4
2.299446823E0,-8.103054762E-2,-1.445770264E-3,1.723045111E-2
2.304500417E0,-6.999409199E-2,-1.441001892E-3,1.258987188E-2
2.309554010E0,-8.994346112E-2,1.755809784E-2,1.377221942E-2
2.314607604E0,-9.315258265E-2,1.147079468E-2,1.610171795E-2
2.319661198E0,-7.962744683E-2,-7.623672485E-3,1.731441915E-2
2.324714792E0,-8.173677325E-2,-8.753776550E-3,2.675138414E-2
2.329768385E0,-8.372360468E-2,1.268005371E-2,1.714630425E-2
2.334821979E0,-8.328627050E-2,1.019191742E-2,3.739038110E-2
2.339875573E0,-8.524443209E-2,-2.957344055E-3,4.203259945E-2
2.344929167E0,-8.127824962E-2,2.317619324E-2,3.472135961E-2
2.349982760E0,-7.374045998E-2,9.920120239E-3,2.979893982E-2
2.355036354E0,-7.570061833E-2,-1.034736633E-2,2.605968714E-2
2.360089948E0,-7.414500415E-2,-1.501274109E-2,2.471001446E-2
2.365143542E0,-8.085265011E-2,-5.393981934E-3,3.406977654E-2
2.370197135E0,-8.264796436E-2,-1.792907715E-3,4.463043809E-2
2.375250729E0,-9.039393067E-2,1.246261597E-2,3.131623566E-2
2.380304323E0,-8.387716115E-2,2.859115601E-3,3.826238215E-2
2.385357917E0,-7.377943397E-2,1.645088196E-3,5.110037327E-2
2.390411510E0,-7.680563629E-2,1.629829407E-3,4.009130597E-2
2.395465104E0,-7.154378295E-2,-3.136634827E-3,2.920359373E-2
2.400518698E0,-7.822772861E-2,1.634597778E-3,3.144885600E-2
2.405572292E0,-6.937864423E-2,-1.500225067E-2,3.248831630E-2
2.410625885E0,-7.352402806E-2,-1.820564270E-3,3.342883289E-2
2.415679479E0,-8.950526267E-2,-7.742881775E-3,3.318974376E-2
2.420733073E0,-7.456568629E-2,1.131248474E-2,4.844477773E-2
2.425786667E0,-7.985261828E-2,-3.027915955E-3,5.287525058E-2
2.430840260E0,-8.043988794E-2,-4.191398621E-3,3.463774920E-2
2.435893854E0,-7.732558995E-2,-1.484012604E-2,4.272806644E-2
2.440947448E0,-6.478374451E-2,-4.034996033E-3,3.177401423E-2
2.446001042E0,-7.371469587E-2,-1.112365723E-2,2.085030079E-2
2.451054635E0,-6.593641639E-2,2.024650574E-3,2.785430849E-2
2.456108229E0,-8.070239425E-2,9.128570557E-3,4.318478703E-2
2.461161823E0,-7.399344444E-2,-6.377220154E-3,3.090311587E-2
2.466215417E0,-5.894047022E-2,-1.700496674E-2,1.400558650E-2
2.471269010E0,-7.496924698E-2,-6.178855896E-3,1.745851338E-2
2.476322604E0,-6.351406127E-2,-9.687423706E-3,1.613558829E-2
2.481376198E0,-5.331217498E-2,-1.087188721E-4,1.780495048E-3
2.486429792E0,-6.331473589E-2,1.082420349E-3,1.364570856E-2
2.491483385E0,-6.977624446E-2,-1.134872437E-4,2.189743519E-2
2.496536979E0,-7.260989398E-2,5.825996399E-3,6.231829524E-3
2.501590573E0,-6.583126634E-2,5.779266357E-3,7.392123342E-3
2.506644167E0,-6.028272957E-2,-4.948616028E-3,-4.546180367E-3
2.511697760E0,-6.196436286E-2,-3.719329834E-3,-1.751211286E-2
2.516751354E0,-6.720732898E-2,-4.873275757E-3,-1.741752028E-2
2.521804948E0,-6.033793837E-2,-9.577751160E-3,-4.174426198E-3
2.526858542E0,-6.309964508E-2,-7.119178772E-3,-1.244015992E-2
2.531912135E0,-5.870014429E-2,-3.496170044E-3,-9.907603264E-3
2.536965729E0,-4.844696075E-2,-5.836486816E-3,-1.699842513E-2
2.542019323E0,-5.846047401E-2,-4.595756531E-3,-1.928243041E-2
2.547072917E0,-6.479908526E-2,4.943847656E-3,-3.726169467E-3
2.552126510E0,-5.677685142E-2,-4.589080811E-3,-2.152092755E-2
2.557180104E0,-3.456375003E-2,3.762245178E-3,-2.245897055E-2
2.562233698E0,-4.581986368E-2,1.360893250E-3,-2.468252182E-2
2.567287292E0,-5.804662406E-2,8.476257324E-3,-2.799803019E-2
2.572340885E0,-5.954799056E-2,2.473831177E-3,-3.008349240E-2
2.577394479E0,-4.437214136E-2,-3.479003906E-3,-2.852965891E-2
2.582448073E0,-5.661194026E-2,-3.446578979E-3,-3.175316751E-2
2.587501667E0,-4.499217868E-2,-4.600524902E-3,-3.491893411E-2
2.592555260E0,-4.537184536E-2,4.938125610E-3,-3.218449652E-2
2.597608854E0,-4.334267974E-2,6.088256836E-3,-1.764662564E-2
2.602662448E0,-4.248821735E-2,-1.080513000E-3,-2.569419146E-2
2.607716042E0,-4.640136659E-2,9.614944458E-3,-2.172647417E-2
2.612769635E0,-4.903760552E-2,4.386901855E-5,-1.910194755E-2
2.617823229E0,-3.863748908E-2,2.421379089E-3,-2.470168471E-2
2.622876823E0,-3.066858649E-2,-7.092475891E-3,-2.194565535E-2
2.627930417E0,-5.006910861E-2,1.196384430E-2,-6.139844656E-3
2.632984010E0,-4.316081107E-2,5.933761597E-3,-2.969884872E-2
2.638037604E0,-5.525852740E-2,7.076263428E-3,-2.092018723E-2
2.643091198E0,-5.188493431E-2,-1.010894775E-4,-1.705434918E-2
2.648144792E0,-5.208490789E-2,-7.217407227E-3,-1.554906368E-2
2.653198385E0,-3.202830255E-2,-1.902198792E-2,1.425594091E-4
2.658251979E0,-2.641333640E-2,-4.613876343E-3,3.777444363E-4
2.663305573E0,-3.027999401E-2,-2.196311951E-3,-4.212066531E-3
2.668359167E0,-4.358173907E-2,7.328033447E-3,-1.599258184E-2
2.673412760E0,-2.832792699E-2,3.711700439E-3,-7.403686643E-3
2.678466354E0,-4.047302902E-2,-3.436088562E-3,1.543460786E-2
2.683519948E0,-2.644699812E-2,1.592636108E-4,9.532079101E-3
2.688573542E0,-3.029985726E-2,2.537727356E-3,1.086077094E-2
2.693627135E0,-1.281379163E-2,3.708839417E-3,2.048791945E-2
2.698680729E0,-3.097942472E-2,-4.624366760E-3,1.577506959E-2
2.703734323E0,-2.528342605E-2,-1.017570496E-3,1.104031503E-2
2.708787917E0,-1.491622627E-2,-1.002311707E-3,1.943354309E-2
2.713841510E0,-2.120876312E-2,9.698867798E-3,1.226460934E-2
2.718895104E0,-4.865482450E-3,1.081085205E-2,1.360011101E-2
2.723948698E0,-1.589964330E-2,1.231193542E-3,3.744937479E-2
2.729002292E0,-2.088944614E-2,4.795074463E-3,3.011640906E-2
2.734055885E0,-1.644726098E-2,3.575325012E-3,3.829142451E-2
2.739109479E0,4.576653242E-3,4.739761353E-3,3.104171157E-2
2.744163073E0,-5.841106176E-4,-4.785537720E-3,4.041121900E-2
2.749216667E0,-1.640380919E-2,-1.067161560E-2,3.072215617E-2
2.754270260E0,-1.195609570E-3,-3.450393677E-3,4.365459085E-2
2.759323854E0,-2.420510352E-2,-8.157730103E-3,4.567557573E-2
2.764377448E0,-1.730193198E-2,2.288818359E-4,5.134585500E-2
2.769431042E0,-9.131819010E-3,3.800392151E-3,3.920912743E-2
2.774484635E0,-4.696846008E-3,4.967689514E-3,4.017089307E-2
2.779538229E0,-1.471444964E-3,-1.000404358E-3,3.645145893E-2
2.784591823E0,1.772463322E-3,-1.047515869E-2,4.685673118E-2
2.789645417E0,2.413541079E-4,-4.441261292E-3,4.656746984E-2
2.794698958E0,1.766954362E-2,3.557205200E-4,4.748174548E-2
2.799752552E0,-5.316644907E-3,-4.380226135E-3,4.113042355E-2
2.804806146E0,2.753928304E-3,-7.667541504E-4,3.248915076E-2
2.809859740E0,1.189833879E-2,4.415512085E-4,3.102672100E-2
2.814913385E0,1.740497351E-2,4.510879517E-4,3.205622733E-2
2.819966927E0,8.545204997E-3,7.584571838E-3,3.887642920E-2
2.825020521E0,3.442153335E-3,-5.521774292E-3,3.859350085E-2
2.830074115E0,2.326223254E-2,5.222320557E-3,2.762712538E-2
2.835127708E0,-2.160146832E-3,-1.926422119E-3,2.136541903E-2
2.840181302E0,1.297603548E-2,6.412506104E-3,1.771259308E-2
2.845234896E0,6.677925587E-3,-9.056091309E-3,2.116622031E-2
2.850288490E0,7.555037737E-3,-6.542205811E-4,2.456109226E-2
2.855342083E0,5.975112319E-3,-5.380630493E-3,3.022623062E-2
2.860395677E0,1.394999027E-2,-7.691383362E-3,1.682043076E-2
2.865449271E0,5.254149437E-3,7.824897766E-3,8.259266615E-3
2.870502865E0,4.971206188E-3,4.214286804E-3,2.010148764E-2
2.875556458E0,2.238571644E-3,3.005981445E-3,2.000260353E-2
2.880610052E0,2.691064775E-2,8.932113647E-3,1.038077474E-2
2.885663646E0,2.647714317E-2,5.316734314E-3,7.167458534E-4
2.890717240E0,4.017376900E-2,5.397796631E-4,7.530748844E-4
2.895770833E0,3.010426462E-2,5.540847778E-4,7.275044918E-4
2.900824427E0,9.448453784E-3,-2.317428589E-2,3.105133772E-3
2.905878021E0,2.692154050E-2,1.964569092E-3,1.258596778E-2
2.910931615E0,3.234736621E-2,-2.780914307E-3,-5.466684699E-3
2.915985208E0,2.705846727E-2,-3.652572632E-4,-3.083661199E-3
2.921038802E0,3.137366474E-2,-3.442764282E-4,-5.405694246E-3
2.926092396E0,3.201474249E-2,-2.698898315E-3,-4.178568721E-3
2.931145990E0,2.078007162E-2,-6.220817566E-3,-7.709652185E-3
2.936199583E0,2.755130827E-2,-2.145767212E-4,-2.659761906E-2
2.941253177E0,4.132741690E-2,-1.382827759E-3,-2.753776312E-2
2.946306771E0,3.001381457E-2,1.288890839E-2,-2.728387713E-2
2.951360365E0,2.241785824E-2,1.873397827E-2,-3.289039433E-2
2.956413958E0,2.786640823E-2,1.740646362E-2,-1.594202220E-2
2.961467552E0,3.792876005E-2,7.777214050E-3,-6.134852767E-3
2.966521146E0,3.390336037E-2,1.795768738E-3,-1.309826970E-3
2.971574740E0,3.934665024E-2,6.545066833E-3,-5.977109075E-3
2.976628333E0,4.463739693E-2,5.712509155E-4,-9.419620037E-3
2.981681927E0,3.935354948E-2,-4.164695740E-3,-1.636262238E-2
2.986735521E0,4.230163991E-2,8.945465088E-3,-3.166374564E-2
2.991789115E0,4.405549169E-2,-4.171371460E-3,-1.702226698E-2
2.996842708E0,4.468227923E-2,8.936882019E-3,-1.906226575E-2
3.001896302E0,3.808966279E-2,4.131317139E-3,-3.545202315E-2
3.006949896E0,3.995227814E-2,1.004791260E-2,-1.478493214E-2
3.012003490E0,5.122128129E-2,9.982109070E-3,-1.699477434E-2
3.017057083E0,4.576192796E-2,-1.956939697E-3,-2.503113449E-2
3.022110677E0,4.762077332E-2,-6.669998169E-3,1.363202929E-3
3.027164271E0,4.453563690E-2,5.245208740E-4,-1.397851110E-2
3.032217865E0,5.092518032E-2,1.002979279E-2,-1.604597270E-2
3.037271458E0,4.076536000E-2,1.589965820E-2,-2.058950067E-2
3.042325052E0,4.729381204E-2,-3.212928772E-3,-5.935907364E-3
3.047378646E0,5.842569470E-2,-4.359245300E-3,-1.045778394E-2
3.052432240E0,5.530971289E-2,4.002571106E-3,-3.117546439E-3
3.057485833E0,6.527881324E-2,2.796173096E-3,1.849099994E-3
3.062539427E0,4.185210168E-2,2.788543701E-3,1.144798100E-2
3.067593021E0,4.824919999E-2,-1.970291138E-3,1.627627015E-2
3.072646615E0,6.176333129E-2,-6.689071655E-3,3.260716796E-3
3.077700208E0,6.207682192E-2,-3.059387207E-3,1.651464403E-2
3.082753802E0,5.648192763E-2,-1.832008362E-3,1.772625744E-2
3.087807396E0,4.630634189E-2,5.324363708E-3,6.981417537E-3
3.092860990E0,5.492076278E-2,-8.955001831E-3,1.658138633E-2
3.097914583E0,5.650919676E-2,-2.927780151E-3,3.073054552E-2
3.102968177E0,5.447682738E-2,1.491451263E-2,2.124620974E-2
3.108021771E0,5.480372906E-2,6.492614746E-3,2.249273658E-2
3.113075365E0,5.884036422E-2,1.239109039E-2,3.429159522E-2
3.118128958E0,7.107758522E-2,7.556915283E-3,2.337752283E-2
3.123182552E0,6.525582075E-2,1.106548309E-2,3.162354231E-2
3.128236146E0,7.263049483E-2,1.491546631E-3,3.503678739E-2
3.133289740E0,5.149868131E-2,1.336574554E-2,2.536311746E-2
3.138343333E0,6.611105800E-2,-2.163887024E-3,3.121846914E-2
3.143396927E0,6.754548848E-2,1.092338562E-2,3.952173889E-2
3.148450521E0,8.438447118E-2,8.472442627E-3,4.282574356E-2
3.153504115E0,6.667150557E-2,6.042480469E-3,4.021061957E-2
3.158557708E0,6.813122332E-2,1.431751251E-2,3.519934416E-2
3.163611302E0,6.712865829E-2,3.528594971E-3,3.622539341E-2
3.168664896E0,6.486986578E-2,1.419544220E-2,3.594800830E-2
3.173718490E0,7.928143442E-2,-1.340866089E-3,5.352668464E-2
3.178772083E0,7.815413177E-2,-1.081371307E-2,4.843278229E-2
3.183825625E0,7.222841680E-2,-9.524345398E-3,5.525304377E-2
3.188879271E0,6.880313158E-2,6.002426147E-3,3.941798210E-2
3.193932813E0,6.648564339E-2,4.776954651E-3,3.322462738E-2
3.198986458E0,7.490140200E-2,5.937576294E-3,4.246948659E-2
3.204040052E0,7.140654325E-2,-8.340835571E-3,3.261390328E-2
3.209093646E0,5.718120933E-2,-5.887031555E-3,3.367500007E-2
3.214147188E0,7.508032024E-2,2.480506897E-3,3.952126205E-2
3.219200781E0,8.225314319E-2,3.661155701E-3,2.851893008E-2
3.224254375E0,5.967491865E-2,1.314258575E-2,3.412209451E-2
3.229307969E0,8.353301883E-2,1.779842377E-2,3.961580992E-2
3.234361563E0,7.273729146E-2,-1.401901245E-4,5.860388279E-3
3.239415156E0,6.194075942E-2,2.251625061E-3,-2.412815392E-2
3.244468750E0,8.802035451E-2,-2.501487732E-3,-4.196384549E-2
3.249522344E0,9.972812235E-2,5.843162537E-3,-6.181366742E-2
3.254575938E0,8.761132509E-2,1.886367798E-2,-7.667477429E-2
3.259629531E0,1.099456772E-1,1.634025574E-2,-5.578407645E-2
3.264683125E0,1.143779010E-1,9.091377258E-3,-4.328688979E-2
3.269736719E0,1.186213046E-1,-7.596969604E-3,-4.874596000E-2
3.274790313E0,1.169251651E-1,-1.108455658E-2,-4.712687433E-2
3.279843906E0,1.353168935E-1,-6.237983704E-3,-5.145731568E-2
3.284897500E0,1.274699867E-1,5.691528320E-3,-6.518776715E-2
3.289951094E0,1.136160046E-1,-9.783744812E-3,-9.307991713E-2
3.295004688E0,7.847926021E-2,4.547119141E-3,-9.113901854E-2
3.300058281E0,6.034511328E-2,-1.418113708E-3,-9.043161571E-2
3.305111875E0,2.793665230E-2,-1.407623291E-3,-1.275491565E-1
3.310165469E0,1.600842178E-2,4.536628723E-3,-1.190069020E-1
3.315219063E0,-1.105448604E-2,-7.374763489E-3,-8.662673086E-2
3.320272656E0,-1.892893016E-2,-4.948616028E-3,-5.658806860E-2
3.325326250E0,-3.970545530E-2,-3.726005554E-3,-1.977682114E-3
3.330379844E0,-5.198422074E-2,-2.625370026E-2,6.993837655E-2
3.335433438E0,-5.827191472E-2,-2.603626251E-2,1.196898967E-1
3.340487031E0,-8.473595977E-2,-1.869201660E-2,1.390291601E-1
3.345540625E0,-8.017571270E-2,-2.208709717E-2,1.257936209E-1
3.350594219E0,-8.053667843E-2,-1.595687866E-2,7.573428750E-2
3.355647813E0,-9.865376353E-2,-7.501602173E-3,-1.431217790E-2
3.360701406E0,-8.689615130E-2,3.530311584E-2,-9.146364778E-2
3.365755000E0,-5.127921700E-2,4.332160950E-2,-9.744662791E-2
3.370808594E0,-5.370625854E-2,4.771232605E-2,-9.728094935E-2
3.375862188E0,-3.705848753E-2,3.663444519E-2,-6.138241291E-2
3.380915781E0,7.847413421E-3,2.802467346E-2,-1.292413473E-2
3.385969375E0,2.138061821E-2,-1.256275177E-2,4.566442966E-2
3.391022969E0,-2.104759216E-3,-4.140853882E-3,2.987815440E-2
3.396076563E0,-8.880928159E-3,-1.359176636E-2,1.763375103E-2
3.401130156E0,2.206400037E-3,-2.782821655E-3,1.018019021E-2
3.406183750E0,-1.529030502E-2,7.931709290E-3,-4.573205113E-2
3.411237344E0,-4.328164458E-2,1.737117767E-2,-1.070707440E-1
3.416290938E0,-5.206044018E-2,6.545066833E-3,-9.402608871E-2
3.421344531E0,-6.904439628E-2,1.598453522E-2,-7.249222696E-2
3.426398125E0,-8.696956933E-2,-1.382732391E-2,-3.686437011E-2
3.431451719E0,-9.640410542E-2,-2.320766449E-2,1.979024708E-2
3.436505313E0,-1.200194210E-1,-3.488636017E-2,5.341903865E-2
3.441558906E0,-1.540932208E-1,-3.577423096E-2,7.098570466E-2
3.446612500E0,-1.535792053E-1,-2.241230011E-2,6.933683157E-2
3.451666094E0,-1.590208858E-1,-2.340221405E-2,4.733888805E-2
3.456719688E0,-1.951613873E-1,-5.390167236E-3,-2.800583839E-3
3.461773281E0,-2.179713100E-1,8.906364441E-3,-3.459300101E-2
3.466826875E0,-2.129839212E-1,1.477241516E-2,-2.408641577E-2
3.471880469E0,-2.222200632E-1,1.702976227E-2,1.726000011E-2
3.476934010E0,-2.336635441E-1,5.024909973E-3,4.167203605E-2
3.481987656E0,-2.318634391E-1,-9.422302246E-4,9.313765168E-2
3.487041250E0,-2.158784568E-1,-6.857872009E-3,1.463372707E-1
3.492094792E0,-2.072574198E-1,3.900527954E-3,1.703738421E-1
3.497148438E0,-2.223740220E-1,1.219940186E-2,1.774096489E-1
3.502202031E0,-2.183119655E-1,2.636623383E-2,1.725149155E-1
3.507255573E0,-2.155612111E-1,2.023506165E-2,1.259928048E-1
3.512309167E0,-1.985579133E-1,-9.587287903E-3,1.072219610E-1
3.517362760E0,-1.887842417E-1,8.321762085E-3,8.990620077E-2
3.522416354E0,-1.824130416E-1,5.906105042E-3,1.108245850E-1
3.527469948E0,-1.832050383E-1,7.074356079E-3,9.826636314E-2
3.532523542E0,-1.614508331E-1,-1.262664795E-3,1.153540164E-1
3.537577135E0,-1.363305748E-1,1.153945923E-3,1.417823732E-1
3.542630729E0,-1.600619256E-1,1.068305969E-2,9.874363244E-2
3.547684323E0,-1.588024497E-1,2.324104309E-3,5.241248012E-2
3.552737917E0,-1.408704519E-1,-5.965232849E-3,2.564683557E-2
3.557791510E0,-1.550333202E-1,-1.127243042E-3,-9.099826217E-3
3.562845104E0,-1.819989681E-1,6.045341492E-3,-3.628185391E-2
3.567898698E0,-1.279596090E-1,1.909160614E-2,-2.147981524E-2
3.572952292E0,-1.359600723E-1,1.422595978E-2,1.341262460E-2
3.578005885E0,-1.440035999E-1,-7.218360901E-3,2.416153252E-2
3.583059479E0,-1.389805377E-1,-2.729701996E-2,3.595070541E-2
3.588113073E0,-1.410918534E-1,-2.702713013E-2,7.733316720E-2
3.593166667E0,-1.396250129E-1,-2.556800842E-2,6.359814107E-2
3.598220260E0,-1.203514636E-1,-1.580905914E-2,4.989869893E-2
3.603273854E0,-1.309131682E-1,-1.682186127E-2,4.841430485E-2
3.608327448E0,-1.484182477E-1,5.917549133E-3,4.826600850E-2
3.613381042E0,-1.703336537E-1,1.898193359E-2,4.077801108E-2
3.618434635E0,-1.470309794E-1,1.056480408E-2,7.271076739E-2
3.623488229E0,-1.525020301E-1,-4.907608032E-3,1.114408374E-1
3.628541823E0,-1.779555678E-1,3.499031067E-3,1.212843060E-1
3.633595417E0,-1.806737781E-1,-1.221656799E-3,1.381364763E-1
3.638649010E0,-1.833075285E-1,-1.420879364E-2,1.606646627E-1
3.643702604E0,-2.130860090E-1,2.596855164E-3,1.604205072E-1
3.648756198E0,-2.130029500E-1,1.451396942E-2,1.624269485E-1
3.653809792E0,-2.175612450E-1,1.327800751E-2,1.763505787E-1
3.658863385E0,-2.054478526E-1,2.867698669E-2,1.472112983E-1
3.663916979E0,-2.064641416E-1,1.902103424E-2,1.526773721E-1
3.668970573E0,-1.955827475E-1,-2.421379089E-3,1.437979341E-1
3.674024167E0,-1.859330833E-1,2.431869507E-3,1.219962984E-1
3.679077760E0,-1.834115684E-1,1.318359375E-2,9.920288622E-2
3.684131354E0,-1.701226532E-1,1.198005676E-2,7.655230165E-2
3.689184948E0,-1.509781480E-1,7.225036621E-3,9.691718221E-2
3.694238542E0,-1.640153229E-1,2.269363403E-2,8.738780022E-2
3.699292135E0,-1.626222432E-1,8.366584778E-3,5.987645686E-2
3.704345729E0,-1.482888460E-1,-1.415443420E-2,4.686950147E-2
3.709399323E0,-1.472108066E-1,-6.810188293E-3,2.794083953E-2
3.714452917E0,-1.483324170E-1,-1.494979858E-2,-2.170556784E-2
3.719506510E0,-1.387613714E-1,-2.658557892E-2,-4.470220208E-2
3.724560104E0,-1.446416378E-1,-1.392364502E-4,-7.335181534E-2
3.729613698E0,-1.396996975E-1,1.066398621E-2,-1.101646721E-1
3.734667292E0,-1.359999478E-1,9.504318237E-3,-1.418147683E-1
3.739720885E0,-1.335034072E-1,7.164001465E-3,-1.516831815E-1
3.744774479E0,-1.250923574E-1,-1.177310944E-2,-1.590800583E-1
3.749828073E0,-1.462763548E-1,-6.809234619E-3,-1.710262001E-1
3.754881667E0,-1.270288229E-1,-9.013175964E-3,-1.614442915E-1
3.759935260E0,-1.374366581E-1,1.017570496E-2,-1.649382412E-1
3.764988802E0,-1.298010349E-1,-1.653671265E-3,-1.647826135E-1
3.770042448E0,-1.212103665E-1,3.232002258E-3,-1.682992280E-1
3.775095990E0,-1.458074749E-1,8.084297180E-3,-1.492452621E-1
3.780149635E0,-1.464424133E-1,-4.907608032E-3,-1.600708961E-1
3.785203229E0,-1.424450576E-1,-1.178741455E-3,-2.040147930E-1
3.790256771E0,-1.525418758E-1,7.274627686E-3,-2.094192207E-1
3.795310365E0,-1.578387618E-1,1.921653748E-2,-2.087723762E-1
3.800363958E0,-1.285448670E-1,3.700160980E-2,-2.105338722E-1
3.805417552E0,-1.267382503E-1,3.089904785E-2,-2.050544620E-1
3.810471146E0,-1.154047847E-1,2.959632874E-2,-1.840828657E-1
3.815524740E0,-1.302526891E-1,2.355861664E-2,-1.644766331E-1
3.820578333E0,-1.211582124E-1,2.351093292E-2,-1.687716842E-1
3.825631927E0,-1.229273975E-1,6.845474243E-3,-1.505786777E-1
3.830685521E0,-1.233130395E-1,1.525783539E-2,-1.515901387E-1
3.835739115E0,-1.106393039E-1,2.359771729E-2,-1.417468190E-1
3.840792708E0,-9.930136800E-2,1.880931854E-2,-1.449927092E-1
3.845846302E0,-9.745031595E-2,2.118968964E-2,-1.351876557E-1
3.850899896E0,-7.893466949E-2,1.286983490E-2,-1.383995861E-1
3.855953490E0,-7.242858410E-2,1.530456543E-2,-1.297434121E-1
3.861007083E0,-5.879467726E-2,3.477096558E-3,-1.234299541E-1
3.866060677E0,-3.448414803E-2,1.668167114E-2,-1.194501519E-1
3.871114271E0,-3.423810005E-2,-3.464698792E-3,-1.013023555E-1
3.876167865E0,-2.442258596E-2,-5.634307861E-3,-9.387002885E-2
3.881221458E0,-1.584494114E-2,7.650375366E-3,-9.127570689E-2
3.886275052E0,-1.819205284E-2,1.132011414E-2,-7.804320753E-2
3.891328646E0,-9.713828564E-3,7.190704346E-4,-7.546533644E-2
3.896382240E0,-9.601891041E-3,-2.668380737E-3,-4.917070270E-2
3.901435833E0,2.395451069E-3,1.093864441E-3,-1.470842957E-2
3.906489427E0,-2.000999451E-2,8.487701416E-5,1.598516107E-2
3.911543021E0,-1.373988390E-2,2.727508545E-4,6.421151757E-2
3.916596615E0,-9.836137295E-3,1.233863831E-2,9.170375764E-2
3.921650208E0,-3.334385157E-2,2.667331696E-2,9.880012274E-2
3.926703802E0,-1.041954756E-2,2.664566040E-2,1.174830496E-1
3.931757396E0,-1.007550955E-2,1.594638824E-2,1.098761857E-1
3.936810990E0,-2.701222897E-3,1.957607269E-2,1.189712286E-1
3.941864583E0,1.066327095E-3,6.559371948E-3,1.233505905E-1
3.946918177E0,1.446628571E-2,1.858711243E-2,1.395828128E-1
3.951971771E0,5.291283131E-3,1.865291595E-2,1.616917402E-1
3.957025365E0,2.696615458E-2,5.656242371E-3,1.977866590E-1
3.962078958E0,2.954375744E-2,1.058197021E-2,2.050031275E-1
3.967132552E0,4.273641109E-2,1.428222656E-2,2.083208859E-1
3.972186146E0,3.676539660E-2,2.032470703E-2,2.198752612E-1
3.977239740E0,4.737138748E-2,3.343582153E-2,1.957326680E-1
3.982293333E0,7.806867361E-2,2.626323700E-2,1.525696069E-1
3.987346927E0,8.250027895E-2,2.509784698E-2,9.295071661E-2
3.992400521E0,9.144592285E-2,1.375198364E-3,2.203080058E-2
3.997454115E0,9.570682049E-2,3.968238831E-3,1.609754562E-2
4.002507708E0,9.063076973E-2,2.435493469E-2,1.516993344E-2
4.007561302E0,9.859281778E-2,1.251792908E-2,1.196195185E-2
4.012614896E0,9.933704138E-2,-1.596450806E-3,6.345036626E-2
4.017668490E0,1.084023118E-1,3.398895264E-3,1.347740144E-1
4.022722083E0,9.489583969E-2,5.990028381E-3,1.720470786E-1
4.027775677E0,1.003420949E-1,-1.043701172E-2,1.695281565E-1
4.032829219E0,1.092618108E-1,-4.173278809E-3,1.883618385E-1
4.037882813E0,1.014575362E-1,4.414558411E-3,1.759621203E-1
4.042936458E0,8.542114496E-2,8.185386658E-3,1.043638736E-1
4.047990000E0,1.004135609E-1,1.548480988E-2,1.166426837E-1
4.053043594E0,1.047050953E-1,2.985095978E-2,1.467823237E-1
4.058097188E0,1.148961782E-1,1.442146301E-2,1.374822706E-1
4.063150781E0,1.310428977E-1,1.455593109E-2,1.629246920E-1
4.068204375E0,1.481992602E-1,1.231384277E-2,2.415663153E-1
4.073257969E0,1.295849681E-1,-6.522178650E-3,2.621943653E-1
4.078311563E0,1.371011734E-1,3.288269043E-3,2.621551156E-1
4.083365156E0,1.361696720E-1,2.334594727E-3,2.749776244E-1
4.088418750E0,1.352461576E-1,6.137847900E-3,2.555677891E-1
4.093472344E0,1.033891439E-1,1.347064972E-2,1.816035211E-1
4.098525938E0,1.287801266E-1,1.124763489E-2,1.319760233E-1
4.103579531E0,1.123971939E-1,1.734924316E-2,1.006901413E-1
4.108633125E0,9.152156115E-2,1.153564453E-2,6.624978781E-2
4.113686719E0,9.457743168E-2,1.764583588E-2,4.506668448E-2
4.118740313E0,7.864522934E-2,1.539421082E-2,6.575988233E-2
4.123793906E0,4.968178272E-2,2.478599548E-3,3.971181810E-2
4.128847500E0,4.469734430E-2,3.924369812E-3,-1.846861839E-2
4.133901094E0,6.231254339E-2,7.728576660E-3,-2.259838581E-2
4.138954688E0,2.503991127E-2,2.217769623E-2,-7.416045666E-2
4.144008281E0,-1.291286945E-2,1.396465302E-2,-1.323246211E-1
4.149061875E0,3.523737192E-2,4.857444763E-2,-1.435106695E-1
4.154115469E0,8.763241768E-2,3.302383423E-2,-1.269123852E-1
4.159169063E0,6.103217602E-2,-2.164840698E-4,-1.472677737E-1
4.164222656E0,3.107398748E-2,1.074790955E-2,-1.071792096E-1
4.169276250E0,2.874529362E-2,7.381439209E-3,-7.804244757E-2
4.174329844E0,3.340494633E-2,-1.970481873E-2,-9.321373701E-2
4.179383438E0,-4.692912102E-3,-3.826141357E-3,-1.273541451E-1
4.184437031E0,-5.474090576E-3,-2.316474915E-3,-9.680885077E-2
4.189490625E0,-3.938555717E-3,8.674621582E-3,-1.186999157E-1
4.194544219E0,-9.449481964E-3,1.957988739E-2,-1.557553709E-1
4.199597813E0,2.313399315E-2,2.090072632E-2,-1.330067515E-1
4.204651406E0,5.557537079E-3,2.220726013E-2,-1.199023128E-1
4.209705000E0,1.783353090E-2,1.164054871E-2,-1.224481016E-1
4.214758594E0,2.999329567E-2,1.659584045E-2,-1.226996258E-1
4.219812188E0,6.092530489E-2,2.504348755E-3,-1.179997846E-1
4.224865781E0,4.190856218E-2,1.466464996E-2,-1.289673150E-1
4.229919375E0,4.315227270E-2,1.722335815E-2,-1.434591413E-1
4.234972969E0,6.093204021E-2,3.043746948E-2,-1.564967185E-1
4.240026563E0,6.684350967E-2,2.455902100E-2,-1.574352086E-1
4.245080156E0,3.820377588E-2,2.228260040E-2,-1.689182222E-1
4.250133750E0,5.137962103E-2,1.884269714E-2,-1.458525211E-1
4.255187344E0,4.673236609E-2,2.493381500E-2,-1.027149335E-1
4.260240938E0,2.905017138E-2,1.198291779E-2,-9.090873599E-2
4.265294531E0,3.871196508E-2,9.817123413E-3,-8.630938083E-2
4.270348125E0,4.833912849E-2,2.548217773E-2,-4.971000552E-2
4.275401719E0,2.222901583E-2,2.320861816E-2,-5.502107739E-2
4.280455313E0,3.203672171E-2,1.265430450E-2,-5.921618640E-2
4.285508854E0,4.280149937E-2,-1.386642456E-3,-4.178658128E-2
4.290562500E0,-5.862951279E-3,-8.183479309E-3,-4.715077579E-2
4.295616094E0,-3.138935566E-2,2.307891846E-2,-4.771786928E-2
4.300669688E0,-2.020776272E-3,1.372623444E-2,-3.039242327E-2
4.305723281E0,-1.938635111E-2,-5.063056946E-3,-4.679217935E-3
4.310776823E0,-3.294140100E-2,1.074409485E-2,1.107792556E-2
4.315830417E0,-3.924906254E-2,1.455307007E-2,1.474508643E-2
4.320884010E0,-5.031144619E-2,-8.975982666E-3,2.079237998E-2
4.325937604E0,-4.224336147E-2,3.311157227E-3,1.248410344E-2
4.330991198E0,-6.871485710E-2,7.183074951E-3,2.569533885E-2
4.336044792E0,-6.869935989E-2,9.844779968E-3,1.878230274E-2
4.341098385E0,-6.029540300E-2,2.198791504E-2,4.889266193E-2
4.346151979E0,-8.401352167E-2,1.982688904E-3,5.841714144E-2
4.351205573E0,-8.023262024E-2,8.263587952E-3,6.663984060E-2
4.356259167E0,-8.015054464E-2,1.211166382E-2,9.848898649E-2
4.361312760E0,-7.643288374E-2,2.187156677E-2,9.914715588E-2
4.366366354E0,-8.095169067E-2,1.257133484E-2,1.032638848E-1
4.371419948E0,-7.479333878E-2,9.282112122E-3,9.665301442E-2
4.376473542E0,-6.030052900E-2,1.196575165E-2,9.246031940E-2
4.381527135E0,-6.974494457E-2,8.687973022E-3,7.756133378E-2
4.386580729E0,-9.095108509E-2,2.205848694E-2,8.308896422E-2
4.391634323E0,-7.965749502E-2,4.246902466E-2,1.063630134E-1
4.396687917E0,-6.972163916E-2,3.183841705E-2,1.033536643E-1
4.401741510E0,-1.051911116E-1,2.290725708E-3,1.049407125E-1
4.406795104E0,-9.624695778E-2,1.337051392E-2,1.135930717E-1
4.411848698E0,-9.331142902E-2,1.723957062E-2,1.090170294E-1
4.416902292E0,-8.695787191E-2,8.010864258E-3,1.056294441E-1
4.421955885E0,-1.327837706E-1,8.368492126E-3,9.158368409E-2
4.427009479E0,-1.138545871E-1,3.723907471E-2,6.346915662E-2
4.432063073E0,-1.045957208E-1,1.838970184E-2,5.572119355E-2
4.437116667E0,-1.085321307E-1,3.253936768E-3,3.619726002E-2
4.442170260E0,-1.017683148E-1,-1.070022583E-3,4.177545011E-2
4.447223854E0,-8.897548914E-2,1.365089417E-2,4.138398170E-2
4.452277448E0,-7.992398739E-2,-6.181716919E-3,4.818895459E-2
4.457331042E0,-7.204574347E-2,-8.030891418E-3,4.898239672E-2
4.462384635E0,-3.210490942E-2,5.577087402E-3,6.041663885E-2
4.467438229E0,-5.538523197E-3,2.619838715E-2,5.045473576E-2
4.472491823E0,2.861917019E-3,8.651733398E-3,4.406487942E-2
4.477545417E0,5.314767361E-3,2.093791962E-2,4.366824031E-2
4.482599010E0,1.844608784E-2,2.363014221E-2,2.772383392E-2
4.487652604E0,1.831877232E-2,7.297515869E-3,2.266837656E-2
4.492706198E0,9.991168976E-3,8.921623230E-3,6.953507662E-3
4.497759792E0,-5.357861519E-3,3.412246704E-3,2.473607659E-2
4.502813385E0,-1.697266102E-2,2.406787872E-2,1.050205529E-2
4.507866979E0,-7.063746452E-3,1.963424683E-2,1.995933056E-2
4.512920573E0,-1.859200001E-2,2.948760986E-2,2.812480927E-2
4.517974167E0,-2.051210403E-2,2.383422852E-2,6.367698312E-3
4.523027760E0,-1.078605652E-3,1.585578918E-2,-5.798712373E-3
4.528081354E0,-9.201526642E-3,1.862239838E-2,-2.383548021E-2
4.533134948E0,5.336999893E-4,2.017784119E-2,-3.455579281E-2
4.538188542E0,-7.482051849E-3,3.479194641E-2,-3.673672676E-2
4.543242135E0,-1.891553402E-2,2.198982239E-2,-5.540646613E-2
4.548295729E0,-4.167675972E-3,4.253387451E-2,-4.545763135E-2
4.553349323E0,-2.573251724E-3,1.661682129E-2,-3.327566385E-2
4.558402865E0,3.650665283E-3,2.295780182E-2,-2.703842521E-2
4.563456458E0,2.411186695E-2,1.263618469E-2,-1.741737127E-2
4.568510052E0,-1.939415932E-3,1.901626587E-2,-2.096767724E-2
4.573563646E0,-2.057647705E-2,2.535343170E-2,-4.938843846E-2
4.578617240E0,-2.954304218E-2,2.452087402E-2,-5.502972007E-2
4.583670833E0,-4.785716534E-2,5.899429321E-3,-7.245443761E-2
4.588724427E0,-3.402757645E-2,1.829242706E-2,-8.135898411E-2
4.593778021E0,-4.993343353E-2,2.346706390E-2,-9.130448848E-2
4.598831615E0,-5.729043484E-2,3.684043884E-3,-8.213524520E-2
4.603885208E0,-9.427833557E-2,1.611804962E-2,-8.608508855E-2
4.608938802E0,-8.574414253E-2,1.778125763E-2,-6.982168555E-2
4.613992396E0,-8.073544502E-2,1.350975037E-2,-3.464671969E-2
4.619045990E0,-1.067994833E-1,-1.329612732E-2,-5.443735421E-2
4.624099583E0,-1.017066240E-1,1.355171204E-2,-4.556797445E-2
4.629153177E0,-1.061851978E-1,8.125305176E-3,-5.574598908E-2
4.634206771E0,-1.035044193E-1,2.411270142E-2,-4.671037197E-2
4.639260365E0,-1.149839163E-1,3.048515320E-2,-4.136259854E-2
4.644313958E0,-1.298124790E-1,4.157066345E-2,-5.617055297E-2
4.649367552E0,-9.579849243E-2,2.527046204E-2,-5.527704954E-3
4.654421146E0,-9.889698029E-2,1.147651672E-2,3.209516406E-3
4.659474740E0,-9.484791756E-2,3.341770172E-2,1.890431345E-2
4.664528333E0,-8.600926399E-2,2.670097351E-2,1.541504264E-2
4.669581927E0,-7.968008518E-2,1.884746552E-2,2.142915130E-2
4.674635521E0,-7.571732998E-2,2.762794495E-3,3.208501637E-2
4.679689115E0,-6.696581841E-2,2.600193024E-2,-1.086571813E-2
4.684742708E0,-3.688967228E-2,2.649688721E-2,-1.062975824E-2
4.689796302E0,-2.856731415E-2,3.765773773E-2,-1.744474471E-2
4.694849896E0,-3.200304508E-2,1.551342010E-2,-1.827315986E-2
4.699903490E0,-3.055667877E-2,1.968479156E-2,-9.611114860E-3
4.704957083E0,-3.271508217E-2,3.569412231E-2,-2.832955122E-2
4.710010677E0,-3.015255928E-2,2.426242828E-2,-7.658258080E-3
4.715064271E0,-1.329159737E-2,1.412773132E-2,-3.108085692E-2
4.720117865E0,9.393692017E-3,2.901268005E-2,-1.391951740E-2
4.725171458E0,2.245414257E-2,3.191280365E-2,1.739475131E-2
4.730225052E0,2.693009377E-2,1.934146881E-2,3.298415244E-2
4.735278646E0,1.616394520E-2,1.639938354E-2,6.636691093E-2
4.740332240E0,1.597487926E-2,1.820850372E-2,6.743365526E-2
4.745385833E0,1.570224762E-3,2.476215363E-2,8.022817969E-2
4.750439427E0,2.762556076E-3,-5.526542664E-3,1.046706140E-1
4.755493021E0,-3.164649010E-3,1.785850525E-2,9.337545931E-2
4.760546615E0,6.376266479E-3,3.392696381E-2,1.202481091E-1
4.765600208E0,-5.469679832E-3,2.494716644E-2,1.217898428E-1
4.770653802E0,-8.878827095E-3,2.435970306E-2,1.363986731E-1
4.775707396E0,-3.125107288E-2,2.496719360E-2,1.306295991E-1
4.780760990E0,-2.017116547E-2,1.845836639E-2,1.248793751E-1
4.785814583E0,-9.136438370E-3,9.635925293E-3,1.347458214E-1
4.790868125E0,-8.804202080E-3,2.583408356E-2,1.348428726E-1
4.795921719E0,6.942152977E-3,2.646541595E-2,1.421389431E-1
4.800975313E0,5.954623222E-3,2.591133118E-2,1.350796670E-1
4.806028906E0,1.558041573E-2,2.179908752E-2,1.409530789E-1
4.811082500E0,4.065001011E-2,4.029083252E-2,1.337344795E-1
4.816136094E0,1.677894592E-2,4.081821442E-2,1.099036485E-1
4.821189688E0,1.926732063E-2,1.642417908E-2,9.330379963E-2
4.826243281E0,2.741336823E-3,2.903842926E-2,7.801657915E-2
4.831296875E0,-4.210829735E-3,3.441619873E-2,7.017256320E-2
4.836350469E0,3.306508064E-3,3.384590149E-2,7.170818746E-2
4.841404063E0,-1.597404480E-5,2.021598816E-2,5.767460167E-2
4.846457656E0,-1.400709152E-2,3.044033051E-2,7.588657737E-2
4.851511250E0,-4.331374168E-2,2.277851105E-2,4.296493530E-2
4.856564844E0,-4.029738903E-2,1.044178009E-2,2.678865194E-2
4.861618438E0,-3.124976158E-2,1.840686798E-2,1.211059093E-2
4.866672031E0,-4.603683949E-2,1.918792725E-2,-2.041669190E-2
4.871725625E0,-2.266907692E-2,2.353286743E-2,-1.220269501E-2
4.876779219E0,-1.371192932E-2,2.191352844E-2,-4.198776186E-2
4.881832813E0,-1.315462589E-2,2.624511719E-2,-5.368834734E-2
4.886886406E0,-6.667017937E-3,3.173065186E-2,-6.889759004E-2
4.891940000E0,1.990127563E-2,1.342868805E-2,-7.684251666E-2
4.896993594E0,1.667845249E-2,2.259731293E-2,-9.762571752E-2
4.902047188E0,1.828944683E-2,1.389598846E-2,-1.039224267E-1
4.907100781E0,3.174281120E-2,3.019618988E-2,-8.874958754E-2
4.912154375E0,3.557336330E-2,3.923988342E-2,-9.032560885E-2
4.917207969E0,2.613782883E-3,3.516197205E-2,-6.700006127E-2
4.922261563E0,-1.655220985E-3,2.280139923E-2,-5.930420756E-2
4.927315156E0,-2.486836910E-2,1.648426056E-2,-5.274631083E-2
4.932368750E0,-4.084122181E-2,3.632831573E-2,-4.987916350E-2
4.937422344E0,-6.481242180E-2,3.942394257E-2,-6.025534868E-2
4.942475938E0,-6.242430210E-2,4.250240326E-2,-6.324484944E-2
4.947529531E0,-9.679269791E-2,2.776336670E-2,-4.842697084E-2
4.952583125E0,-8.216023445E-2,1.672077179E-2,-6.572341919E-2
4.957636719E0,-6.766605377E-2,2.595424652E-2,-6.043091416E-2
4.962690313E0,-6.868112087E-2,2.681350708E-2,-7.891599834E-2
4.967743906E0,-7.204687595E-2,3.242015839E-2,-8.657344431E-2
4.972797500E0,-5.872094631E-2,4.274082184E-2,-8.701207489E-2
4.977851094E0,-4.425978661E-2,4.586696625E-2,-9.330971539E-2
4.982904688E0,-4.306674004E-2,2.165412903E-2,-9.717570990E-2
4.987958281E0,-4.541647434E-2,1.189899445E-2,-9.521624446E-2
4.993011823E0,-4.528307915E-2,2.836036682E-2,-9.672679007E-2
4.998065469E0,-4.994463921E-2,4.824256897E-2,-9.933674335E-2
5.003119063E0,-5.090141296E-2,2.168464661E-2,-9.119369835E-2
5.008172656E0,-5.883812904E-2,3.335857391E-2,-7.114022970E-2
5.013226198E0,-5.371320248E-2,2.593994141E-2,-7.388064265E-2
5.018279792E0,-4.739809036E-2,3.758716583E-2,-5.630035698E-2
5.023333385E0,-2.923703194E-2,3.015613556E-2,-6.032133102E-2
5.028386979E0,-3.866517544E-2,1.445865631E-2,-5.832587183E-2
5.033440573E0,-6.349086761E-3,2.265834808E-2,-6.230495870E-2
5.038494167E0,2.227187157E-2,1.419830322E-2,-7.800389081E-2
5.043547760E0,3.510093689E-2,3.190898895E-2,-8.405310661E-2
5.048601354E0,4.436743259E-2,2.931499481E-2,-8.761982620E-2
5.053654948E0,7.139134407E-2,4.693222046E-2,-7.693199813E-2
5.058708542E0,1.064088345E-1,4.777050018E-2,-5.667449534E-2
5.063762135E0,1.222305298E-1,2.725505829E-2,-5.089049041E-2
5.068815729E0,1.663502455E-1,3.301811218E-2,-4.388748109E-2
5.073869323E0,1.767878532E-1,2.923202515E-2,-3.475612402E-2
5.078922917E0,1.836202145E-1,2.192878723E-2,-2.093048394E-2
5.083976510E0,1.868343353E-1,2.537155151E-2,-1.190319657E-2
5.089030104E0,2.042657137E-1,4.184818268E-2,-6.497368217E-3
5.094083698E0,2.285988331E-1,4.392814636E-2,2.631573379E-2
5.099137292E0,2.265847921E-1,3.174591064E-2,3.158375621E-2
5.104190885E0,2.103711367E-1,2.798652649E-2,6.030473113E-2
5.109244479E0,2.025557756E-1,2.069473267E-2,7.454839349E-2
5.114298073E0,2.042561769E-1,2.295589447E-2,9.344889224E-2
5.119351667E0,1.987745762E-1,3.113269806E-2,1.023664027E-1
5.124405260E0,2.110844851E-1,2.617454529E-2,9.593264759E-2
5.129458854E0,2.280088663E-1,3.194141388E-2,9.780900180E-2
5.134512448E0,2.186462879E-1,1.866436005E-2,8.667454123E-2
5.139566042E0,2.306843996E-1,1.854991913E-2,9.350973368E-2
5.144619635E0,2.640622854E-1,2.083015442E-2,9.776565433E-2
5.149673229E0,2.615495920E-1,1.596832275E-2,9.258468449E-2
5.154726823E0,2.720395327E-1,1.944828033E-2,9.572108090E-2
5.159780417E0,2.906632423E-1,1.694869995E-2,1.131702662E-1
5.164834010E0,3.009258509E-1,3.810882568E-3,1.125159264E-1
5.169887604E0,3.061439991E-1,6.179809570E-3,1.260316819E-1
5.174941198E0,3.124748468E-1,1.403808594E-3,1.228429228E-1
5.179994792E0,3.246413469E-1,2.040100098E-2,1.351435781E-1
5.185048385E0,3.416053057E-1,1.315689087E-2,1.224327683E-1
5.190101979E0,3.427850008E-1,5.936622620E-3,1.192834675E-1
5.195155573E0,3.403627872E-1,7.083892822E-3,1.196442246E-1
5.200209167E0,3.581093550E-1,1.059341431E-2,9.622216225E-2
5.205262760E0,3.529611826E-1,1.997280121E-2,8.727210760E-2
5.210316354E0,3.491154909E-1,2.454566956E-2,9.015168250E-2
5.215369896E0,3.428506851E-1,2.432155609E-2,8.465087414E-2
5.220423490E0,3.354219198E-1,2.290821075E-2,6.131167710E-2
5.225477083E0,3.078749180E-1,8.447647095E-3,5.027006567E-2
5.230530677E0,3.077996969E-1,2.615165710E-2,5.461533368E-2
5.235584271E0,2.839382887E-1,4.488563538E-2,4.957701266E-2
5.240637865E0,2.923104763E-1,3.734970093E-2,4.920397699E-2
5.245691458E0,2.731778622E-1,2.985191345E-2,5.597658455E-2
5.250745052E0,2.731510401E-1,1.885414124E-2,3.877294064E-2
5.255798646E0,2.730791569E-1,1.862525940E-2,4.662641883E-2
5.260852240E0,2.598463297E-1,8.881568909E-3,2.246442437E-2
5.265905833E0,2.491118908E-1,3.009033203E-2,2.693112195E-2
5.270959427E0,2.586618662E-1,3.213024139E-2,1.250451803E-2
5.276013021E0,2.609499693E-1,1.277732849E-2,1.470094919E-2
5.281066615E0,2.512599230E-1,2.087497711E-2,1.094338298E-2
5.286120208E0,2.310400009E-1,1.230239868E-2,-2.126635611E-2
5.291173802E0,2.477270365E-1,6.163597107E-3,-1.510788500E-2
5.296227396E0,2.476270199E-1,1.431846619E-2,-2.094908059E-2
5.301280990E0,2.546472549E-1,-2.524375916E-3,-3.021894395E-2
5.306334583E0,2.519923449E-1,1.517772675E-2,-1.453058422E-2
5.311388177E0,2.600138187E-1,6.612777710E-3,-2.617743611E-2
5.316441771E0,2.678937912E-1,-7.076263428E-4,-1.399765909E-2
5.321495365E0,2.566838264E-1,5.084991455E-3,-1.489661634E-2
5.326548958E0,2.502094507E-1,1.556015015E-2,-3.253799677E-2
5.331602552E0,2.425423861E-1,1.525211334E-2,-2.973003685E-2
5.336656146E0,2.266002893E-1,-4.048347473E-3,-2.941492200E-2
5.341709740E0,2.214748859E-1,5.300521851E-3,-1.473252475E-2
5.346763333E0,2.330248356E-1,2.525997162E-2,-1.676762104E-2
5.351816927E0,2.420455217E-1,1.299190521E-2,8.496150374E-3
5.356870521E0,2.236875296E-1,1.032447815E-2,2.045883238E-2
5.361924115E0,2.160609961E-1,7.660865784E-3,2.874282002E-2
5.366977708E0,2.405180931E-1,2.994251251E-2,2.630980313E-2
5.372031302E0,2.374541759E-1,-1.379013062E-3,2.142779529E-2
5.377084896E0,2.356170416E-1,8.039474487E-4,8.214518428E-3
5.382138490E0,2.348771095E-1,6.511688232E-3,1.644295454E-2
5.387192083E0,2.376604080E-1,1.216030121E-2,-1.557019353E-2
5.392245677E0,2.261455059E-1,1.657199860E-2,-1.416765153E-2
5.397299271E0,2.038944960E-1,1.260852814E-2,-1.398755610E-2
5.402352813E0,2.067115307E-1,2.528858185E-2,-1.847402751E-2
5.407406458E0,2.022503614E-1,1.290893555E-2,-1.470252872E-2
5.412460052E0,1.812635660E-1,-2.309417725E-2,-1.817150414E-2
5.417513594E0,1.901576519E-1,5.626678467E-4,-1.322770119E-2
5.422567188E0,1.644183397E-1,-6.866455078E-3,-1.660490036E-2
5.427620781E0,1.745949984E-1,-3.533363342E-3,1.478955150E-3
5.432674375E0,1.549201012E-1,-4.991531372E-3,2.775207162E-3
5.437727969E0,1.544463634E-1,-4.940032959E-4,-4.222184420E-3
5.442781563E0,1.645995378E-1,-6.728172302E-3,1.917123795E-3
5.447835156E0,1.544746161E-1,3.705024719E-3,1.516398787E-2
5.452888750E0,1.658008099E-1,-9.687423706E-3,3.073099256E-2
5.457942344E0,1.663928032E-1,-2.778053284E-3,3.303621709E-2
5.462995938E0,1.478381157E-1,7.607460022E-3,4.123100638E-2
5.468049531E0,1.698000431E-1,1.289367676E-3,4.220592976E-2
5.473103125E0,1.582651138E-1,3.318786621E-3,3.242050111E-2
5.478156719E0,1.657724380E-1,2.953529358E-3,2.144861221E-2
5.483210313E0,1.802203655E-1,-6.928443909E-3,3.338709474E-3
5.488263906E0,1.636379957E-1,-1.555156708E-2,4.482418299E-3
5.493317500E0,1.543314457E-1,3.205299377E-3,-1.219815016E-2
5.498371094E0,1.224594116E-1,1.466083527E-2,-2.619609237E-2
5.503424688E0,9.437084198E-2,4.649162292E-3,-1.409459114E-2
5.508478281E0,5.817580223E-2,7.772445679E-3,-1.388804615E-2
5.513531875E0,3.529524803E-2,4.925727844E-3,-4.160046577E-3
5.518585469E0,2.094459534E-2,-1.451492310E-3,1.743808389E-2
5.523639063E0,-1.340842247E-2,-5.391120911E-3,3.889138997E-2
5.528692656E0,-3.340816498E-2,1.659393311E-4,7.437258959E-2
5.533746250E0,-6.143260002E-2,6.889343262E-3,7.265184820E-2
5.538799844E0,-6.667017937E-2,4.067420959E-3,8.148622513E-2
5.543853438E0,-5.767893791E-2,1.431465149E-2,5.217483640E-2
5.548907031E0,-1.076173782E-2,1.854896545E-2,1.712471247E-2
5.553960625E0,1.088142395E-2,1.326084137E-2,-1.163761318E-2
5.559014219E0,-4.514694214E-3,1.393890381E-2,-5.191235244E-2
5.564067813E0,1.704764366E-2,2.747535706E-3,-5.972838402E-2
5.569121406E0,6.107497215E-2,1.778411865E-2,-6.389045715E-2
5.574175000E0,7.272982597E-2,2.439403534E-2,-6.784196198E-2
5.579228594E0,7.464075089E-2,1.548576355E-2,-5.270591378E-2
5.584282188E0,8.365702629E-2,-5.218505859E-3,-3.182944655E-2
5.589335729E0,1.092438698E-1,-1.268100739E-2,-1.841153204E-2
5.594389323E0,1.416954994E-1,-2.365303040E-2,-1.459881663E-2
5.599442917E0,1.665749550E-1,-3.693866730E-2,-5.253809690E-2
5.604496510E0,1.745383739E-1,-3.826332092E-2,-8.429151028E-2
5.609550156E0,1.681598425E-1,-7.532119751E-3,-1.335187554E-1
5.614603698E0,1.889303923E-1,6.280899048E-3,-1.585698128E-1
5.619657292E0,1.977751255E-1,6.941795349E-3,-2.057475597E-1
5.624710885E0,1.970207691E-1,2.776813507E-2,-2.333631516E-1
5.629764479E0,1.914349794E-1,1.160240173E-2,-2.108387351E-1
5.634818073E0,1.930183172E-1,-6.804466248E-3,-2.073734999E-1
5.639871667E0,2.231522799E-1,-9.613037109E-3,-1.467174590E-1
5.644925260E0,2.280759811E-1,-1.715278625E-2,-1.365045309E-1
5.649978854E0,2.066805363E-1,-2.110099792E-2,-9.439334273E-2
5.655032448E0,2.103472948E-1,2.602291107E-2,-6.824274361E-2
5.660086042E0,2.043945789E-1,3.237819672E-2,-9.837830067E-2
5.665139635E0,2.115336657E-1,1.612186432E-2,-1.388460100E-1
5.670193229E0,2.232286930E-1,-2.956390381E-5,-1.505311579E-1
5.675246823E0,2.288610935E-1,1.362133026E-2,-1.843477190E-1
5.680300417E0,2.108685970E-1,-6.047248840E-3,-1.796907187E-1
5.685354010E0,2.428116798E-1,-3.017425537E-3,-1.463727802E-1
5.690407604E0,2.899233103E-1,3.546714783E-3,-9.179303795E-2
5.695461198E0,3.081203699E-1,1.242637634E-2,-6.516616046E-2
5.700514792E0,3.343851566E-1,2.952480316E-2,-4.715770483E-2
5.705568385E0,3.482336998E-1,-2.006816864E-2,2.288931608E-2
5.710621979E0,2.976543903E-1,-5.385780334E-2,1.973284781E-2
5.715675573E0,2.855932713E-1,-1.241407394E-1,4.147408903E-2
5.720729167E0,3.187013865E-1,-2.884769440E-2,8.234044909E-2
5.725782760E0,2.729449272E-1,-3.254890442E-3,6.599919498E-2
5.730836354E0,2.144854069E-1,9.097671509E-2,5.423992872E-3
5.735889948E0,2.157505751E-1,1.036777496E-1,7.944497466E-2
5.740943542E0,1.706365347E-1,8.233070374E-3,1.207848042E-1
5.745997135E0,1.853237152E-1,-2.467155457E-2,4.768824577E-2
5.751050729E0,1.700141430E-1,-9.414768219E-2,7.762280107E-2
5.756104323E0,5.626392365E-2,-5.503559113E-2,9.686189890E-2
5.761157865E0,1.245267391E-1,4.205989838E-2,8.011732996E-2
5.766211510E0,2.418574095E-1,7.063579559E-2,4.694233835E-2
5.771265052E0,1.818490028E-1,8.576202393E-2,4.863618314E-2
5.776318646E0,1.583654881E-1,1.246023178E-1,1.305558085E-1
5.781372292E0,1.899023056E-1,3.140926361E-2,9.279489517E-2
5.786425833E0,2.967984676E-1,-1.109523773E-1,1.900670230E-1
5.791479427E0,2.254132032E-1,-1.750831604E-1,1.620053947E-1
5.796533021E0,9.899735451E-2,-5.938434601E-2,1.109904051E-1
5.801586615E0,1.295500994E-1,2.457809448E-2,4.241293669E-2
5.806640208E0,1.878874302E-1,5.193710327E-2,1.235308945E-1
5.811693802E0,1.612931490E-1,8.852577209E-2,1.460362673E-1
5.816747396E0,8.401799202E-2,5.362129211E-2,1.597268283E-1
5.821800990E0,7.747483253E-2,-7.094383240E-3,2.966448069E-1
5.826854583E0,9.103703499E-2,-1.171875000E-1,2.958420515E-1
5.831908177E0,3.655695915E-2,-1.326360703E-1,2.934564352E-1
5.836961771E0,3.166198730E-4,-7.079887390E-2,2.291648090E-1
5.842015365E0,3.110408783E-2,-1.891708374E-2,2.022182494E-1
5.847068958E0,5.568766594E-2,3.133773804E-2,2.030416727E-1
5.852122552E0,2.181100845E-2,1.013278961E-1,1.697285920E-1
5.857176146E0,-1.773047447E-2,7.101917267E-2,2.163041085E-1
5.862229740E0,-5.207347870E-2,1.130962372E-2,2.815911472E-1
5.867283333E0,-4.457950592E-2,-2.772045135E-2,3.616394401E-1
5.872336927E0,-7.530879974E-2,-8.901405334E-2,4.182476699E-1
5.877390521E0,-7.967424393E-2,-1.058673859E-1,4.110971391E-1
5.882444115E0,-6.740355492E-2,-5.135536194E-2,4.108464420E-1
5.887497708E0,-6.720924377E-2,-3.252983093E-3,3.891239166E-1
5.892551302E0,-9.687685966E-2,2.542018890E-2,3.447965980E-1
5.897604896E0,-1.226310730E-1,3.369235992E-2,3.378382325E-1
5.902658490E0,-1.267495155E-1,-8.316040039E-4,3.739185333E-1
5.907712083E0,-1.877830029E-1,-4.574394226E-2,3.515496850E-1
5.912765677E0,-2.102060318E-1,-1.045007706E-1,3.673125505E-1
5.917819271E0,-1.908645630E-1,-1.034069061E-1,4.304221869E-1
5.922872865E0,-2.323348522E-1,-7.028961182E-2,4.203070402E-1
5.927926458E0,-2.520942688E-1,-6.399154663E-4,4.087773561E-1
5.932980052E0,-2.504494190E-1,1.016387939E-1,4.317182004E-1
5.938033646E0,-2.903997898E-1,9.622192383E-2,4.865933061E-1
5.943087240E0,-3.832261562E-1,1.015911102E-1,4.717589617E-1
5.948140781E0,-4.039537907E-1,7.133960724E-2,3.591762185E-1
5.953194375E0,-3.712832928E-1,-7.740306854E-2,2.413534522E-1
5.958247969E0,-3.852603436E-1,-9.909343719E-2,1.114788651E-1
5.963301563E0,-4.048089981E-1,-5.645275116E-2,1.976299286E-2
5.968355156E0,-4.003343582E-1,2.977561951E-2,-3.169487417E-2
5.973408750E0,-4.086511135E-1,8.210754395E-2,-5.512933433E-2
5.978462344E0,-4.240028858E-1,1.245174408E-1,-7.852210104E-2
5.983515938E0,-4.143974781E-1,5.615520477E-2,-1.410220861E-1
5.988569531E0,-3.846821785E-1,-3.180789948E-2,-2.174635530E-1
5.993623125E0,-3.718829155E-1,-7.394504547E-2,-2.883089185E-1
5.998676719E0,-3.817486763E-1,-1.050519943E-1,-3.073465228E-1
6.003730313E0,-3.744840622E-1,-3.610038757E-2,-2.806338072E-1
6.008783906E0,-3.541309834E-1,3.808975220E-3,-2.339576930E-1
6.013837500E0,-3.399109840E-1,3.982162476E-2,-2.601716518E-1
6.018891094E0,-3.082358837E-1,5.056095123E-2,-2.829407156E-1
6.023944688E0,-3.137457371E-1,1.252079010E-2,-3.319025338E-1
6.028998281E0,-3.763418198E-1,-6.085300446E-2,-4.124188423E-1
6.034051875E0,-4.276063442E-1,-6.236934662E-2,-4.646506906E-1
6.039105469E0,-4.614667892E-1,-3.293895721E-2,-4.470606446E-1
6.044159063E0,-4.982781410E-1,5.812644958E-3,-3.817897439E-1
6.049212656E0,-5.180375576E-1,6.801128387E-2,-3.407314718E-1
6.054266250E0,-5.031621456E-1,9.053707123E-2,-3.489550948E-1
6.059319844E0,-4.922993183E-1,5.345249176E-2,-3.977309465E-1
6.064373438E0,-4.981670380E-1,2.436637878E-3,-4.761644006E-1
6.069427031E0,-4.968371391E-1,-3.390693665E-2,-5.489139557E-1
6.074480625E0,-5.214574337E-1,-1.887607574E-2,-5.409659147E-1
6.079534219E0,-5.609765053E-1,3.409004211E-2,-5.244112611E-1
6.084587813E0,-5.868983269E-1,4.986286163E-2,-4.852684140E-1
6.089641406E0,-5.888895988E-1,5.718803406E-2,-4.570147693E-1
6.094695000E0,-5.813369751E-1,3.954219818E-2,-4.626368284E-1
6.099748542E0,-6.131744385E-1,1.827239990E-3,-4.884082079E-1
6.104802135E0,-6.636703014E-1,-1.300239563E-2,-5.078763962E-1
6.109855729E0,-6.755399704E-1,-2.528572083E-2,-4.544382691E-1
6.114909323E0,-7.143476009E-1,1.838779449E-2,-4.118453860E-1
6.119962917E0,-7.538392544E-1,4.037570953E-2,-3.446392417E-1
6.125016510E0,-7.810072899E-1,4.440879822E-2,-2.743739486E-1
6.130070104E0,-7.485651970E-1,1.755619049E-2,-2.629859447E-1
6.135123698E0,-7.495913506E-1,4.405975342E-4,-2.826703787E-1
6.140177292E0,-7.420961857E-1,-2.953720093E-2,-2.913593054E-1
6.145230885E0,-7.321598530E-1,-1.175308228E-2,-2.557371259E-1
6.150284479E0,-7.362122536E-1,3.594398499E-3,-1.857804507E-1
6.155338073E0,-7.043967247E-1,2.836990356E-2,-1.376340091E-1
6.160391667E0,-6.656768322E-1,4.821109772E-2,-6.157535315E-2
6.165445260E0,-6.427109241E-1,3.228092194E-2,-2.778238058E-2
6.170498854E0,-6.259906292E-1,8.152961731E-3,-5.157497525E-2
6.175552448E0,-6.165206432E-1,-1.932716370E-2,-7.755167782E-2
6.180606042E0,-6.152219772E-1,-4.972457886E-3,-9.254884720E-2
6.185659635E0,-5.981645584E-1,1.647377014E-2,-9.647297859E-2
6.190713229E0,-5.966055393E-1,3.538703918E-2,-6.925247610E-2
6.195766823E0,-5.592393875E-1,4.827117920E-2,-2.215814590E-2
6.200820417E0,-5.304067135E-1,4.327106476E-2,-2.064645290E-2
6.205874010E0,-4.733829498E-1,1.337623596E-2,-3.237728029E-2
6.210927604E0,-4.132592678E-1,1.103878021E-2,-1.531830430E-2
6.215981198E0,-3.770716190E-1,8.804321289E-3,6.525546312E-3
6.221034792E0,-3.256521225E-1,1.492881775E-2,6.037662923E-2
6.226088385E0,-2.840268612E-1,2.697467804E-2,1.649985313E-1
6.231141979E0,-2.271525860E-1,4.015922546E-2,2.649959326E-1
6.236195573E0,-1.993587017E-1,2.947044373E-2,3.080526590E-1
6.241249167E0,-1.529383659E-1,8.161544800E-3,3.385391831E-1
6.246302760E0,-1.437625885E-1,1.669597626E-2,3.388791978E-1
6.251356302E0,-1.560778618E-1,-1.045894623E-2,3.320688009E-1
6.256409948E0,-1.515870094E-1,8.933067322E-3,3.194053173E-1
6.261463490E0,-1.385765076E-1,5.434608459E-2,3.498919010E-1
6.266517083E0,-1.231369972E-1,6.144237518E-2,3.991828561E-1
6.271570729E0,-1.207995415E-1,6.613636017E-2,4.039416909E-1
6.276624271E0,-3.304028511E-2,4.586505890E-2,4.842540026E-1
6.281677865E0,-7.986068726E-3,-1.596450806E-3,4.293390512E-1
6.286731458E0,-1.524782181E-2,-3.679370880E-2,3.778819442E-1
6.291785052E0,6.439542770E-2,-2.415561676E-2,2.850718498E-1
6.296838646E0,1.446931362E-1,-1.158428192E-2,2.572468519E-1
6.301892240E0,2.208180428E-1,-1.216125488E-2,2.513700426E-1
6.306945833E0,3.378865719E-1,2.881622314E-2,2.116023302E-1
6.311999427E0,3.669095039E-1,2.659893036E-2,1.997929662E-1
6.317053021E0,3.469445705E-1,1.013851166E-2,1.499430090E-1
6.322106615E0,3.449168205E-1,-2.627372742E-3,1.394717991E-1
6.327160208E0,3.785979748E-1,-8.140563965E-3,1.397927254E-1
6.332213802E0,3.991513252E-1,-3.610420227E-2,2.090995312E-1
6.337267396E0,4.514555931E-1,-1.519870758E-2,2.588027120E-1
6.342320990E0,4.733817577E-1,-1.708984375E-2,2.152170688E-1
6.347374583E0,4.603452682E-1,-4.809379578E-3,1.797979027E-1
6.352428177E0,4.508972168E-1,3.821659088E-2,9.925678372E-2
6.357481771E0,4.367043972E-1,4.049873352E-2,4.215937853E-2
6.362535365E0,4.179620743E-1,1.547241211E-2,6.205101311E-2
6.367588958E0,4.399769306E-1,1.089572906E-2,1.000443101E-1
6.372642552E0,4.308862686E-1,-3.159523010E-3,1.308535635E-1
6.377696146E0,3.896553516E-1,-3.494644165E-2,1.884833276E-1
6.382749740E0,3.879270554E-1,1.425647736E-2,2.785944343E-1
6.387803333E0,4.014973640E-1,3.571128845E-2,3.462714553E-1
6.392856927E0,3.578293324E-1,2.490329742E-2,3.525128961E-1
6.397910521E0,3.513092995E-1,4.623794556E-2,3.288270235E-1
6.402964115E0,3.673229218E-1,3.176307678E-2,2.791770995E-1
6.408017708E0,3.699824810E-1,-1.112270355E-2,2.132070810E-1
6.413071302E0,3.594880104E-1,-3.349208832E-2,1.573086232E-1
6.418124896E0,3.729565144E-1,-2.240562439E-2,1.592442989E-1
6.423178490E0,3.590557575E-1,1.115131378E-2,1.542461663E-1
6.428232031E0,3.428547382E-1,3.135967255E-2,1.683203578E-1
6.433285625E0,3.730254173E-1,1.458740234E-2,1.939934939E-1
6.438339219E0,3.885071278E-1,1.466751099E-3,1.954418421E-1
6.443392813E0,3.990485668E-1,-3.292083740E-2,1.503129750E-1
6.448446406E0,3.915162086E-1,-3.382587433E-2,1.195254773E-1
6.453500000E0,4.065711498E-1,-1.693058014E-2,8.792455494E-2
6.458553594E0,4.179582596E-1,2.238082886E-2,4.728044569E-2
6.463607188E0,4.245162010E-1,2.694320679E-2,1.771722734E-2
6.468660781E0,4.571239948E-1,3.383445740E-2,5.167707801E-3
6.473714375E0,4.715254307E-1,3.231811523E-2,9.544327855E-3
6.478767969E0,4.476990700E-1,1.297664642E-2,1.021060348E-2
6.483821563E0,4.393711090E-1,8.001327515E-3,2.634301782E-2
6.488875156E0,4.144761562E-1,-1.355266571E-2,7.426479459E-2
6.493928750E0,3.991401196E-1,-2.912521362E-3,8.488358557E-2
6.498982344E0,4.005658627E-1,1.358032227E-2,5.370363593E-2
6.504035938E0,4.172949791E-1,1.328945160E-2,1.304292679E-2
6.509089531E0,3.979792595E-1,1.648521423E-2,-7.025972009E-2
6.514143125E0,3.811388016E-1,2.200889587E-2,-1.634036154E-1
6.519196719E0,3.274343014E-1,-8.186340332E-3,-2.414574772E-1
6.524250313E0,2.411284447E-1,-2.384757996E-2,-2.494014502E-1
6.529303906E0,2.437958717E-1,4.501819611E-2,-2.333228439E-1
6.534357500E0,2.593984604E-1,-1.374149323E-2,-1.945797205E-1
6.539411094E0,2.009823322E-1,-4.360198975E-2,-1.491099298E-1
6.544464688E0,1.787192822E-1,8.724212646E-3,-1.295188218E-1
6.549518281E0,2.123713493E-1,1.193428040E-2,-1.982222050E-1
6.554571875E0,1.847498417E-1,-2.774906158E-2,-2.175723910E-1
6.559625417E0,1.586024761E-1,-6.546974182E-3,-2.319129407E-1
6.564679010E0,1.316726208E-1,1.334095001E-2,-2.899182439E-1
6.569732656E0,1.287007332E-1,-1.917648315E-2,-2.937004566E-1
6.574786198E0,1.138110161E-1,2.690124512E-2,-2.985046506E-1
6.579839792E0,1.050255299E-1,-1.286315918E-2,-2.902045250E-1
6.584893385E0,8.191776276E-2,2.126407623E-2,-3.354547620E-1
6.589946979E0,7.789421082E-2,-9.029388428E-3,-3.433118463E-1
6.595000573E0,3.953242302E-2,1.317787170E-2,-3.368777633E-1
6.600054167E0,2.287173271E-2,-1.702785492E-2,-3.530225456E-1
6.605107760E0,-1.022481918E-2,1.238536835E-2,-3.512619734E-1
6.610161354E0,-3.592157364E-2,-4.741668701E-3,-3.339817524E-1
6.615214948E0,-6.376409531E-2,1.032543182E-2,-3.618127406E-1
6.620268542E0,-6.292772293E-2,1.575565338E-2,-3.666072488E-1
6.625322135E0,-7.754492760E-2,-1.923084259E-2,-3.283751011E-1
6.630375729E0,-9.651565552E-2,3.043842316E-2,-2.998820245E-1
6.635429323E0,-8.912348747E-2,-3.377914429E-3,-2.216418982E-1
6.640482917E0,-1.187403202E-1,1.646518707E-2,-1.511914283E-1
6.645536510E0,-9.589195251E-2,-6.591796875E-3,-8.738970757E-2
6.650590104E0,-1.030433178E-1,-3.374099731E-3,-6.829583645E-2
6.655643698E0,-9.942197800E-2,-3.934192657E-2,-6.976591051E-2
6.660697292E0,-8.753752708E-2,-3.788948059E-3,-9.137740731E-2
6.665750885E0,-7.219266891E-2,-5.836486816E-4,-1.389397979E-1
6.670804479E0,-6.999111176E-2,1.566219330E-2,-1.776139140E-1
6.675858073E0,-4.865503311E-2,4.843711853E-2,-1.849083304E-1
6.680911615E0,-4.182767868E-2,1.918697357E-2,-1.647596359E-1
6.685965208E0,-5.529451370E-2,1.153182983E-2,-1.709458977E-1
6.691018802E0,-3.777027130E-2,-1.385974884E-2,-1.580308825E-1
6.696072396E0,-2.278137207E-2,1.081085205E-2,-1.499222517E-1
6.701125990E0,-5.059289932E-2,-1.218891144E-2,-1.297997236E-1
6.706179583E0,-6.154251099E-2,4.179954529E-3,-1.087722033E-1
6.711233177E0,-5.104756355E-2,1.328563690E-2,-4.614115506E-2
6.716286771E0,-6.548142433E-2,2.946376801E-2,-6.601110101E-3
6.721340365E0,-7.035613060E-2,-1.989364624E-3,2.306318283E-2
6.726393958E0,-8.355712891E-2,-1.420783997E-2,9.658800066E-2
6.731447552E0,-7.759714127E-2,2.187728882E-3,1.479580700E-1
6.736501146E0,-7.993793488E-2,-2.783107758E-2,1.811418682E-1
6.741554740E0,-6.910085678E-2,-6.525993347E-3,2.413735688E-1
6.746608333E0,-5.839729309E-2,-1.271057129E-2,3.080976605E-1
6.751661927E0,-6.683731079E-2,2.511024475E-3,3.193795681E-1
6.756715521E0,-8.609414101E-2,-5.006790161E-3,3.506835699E-1
6.761769115E0,-9.440517426E-2,3.002166748E-3,3.709412813E-1
6.766822708E0,-1.014006138E-1,2.658843994E-3,3.611758053E-1
6.771876302E0,-1.641750336E-1,-7.195472717E-3,3.456988037E-1
6.776929896E0,-1.860065460E-1,-8.640289307E-3,3.601221442E-1
6.781983490E0,-1.980717182E-1,1.369857788E-2,3.921617568E-1
6.787037083E0,-2.552630901E-1,1.563644409E-2,4.095845222E-1
6.792090677E0,-2.880895138E-1,1.998329163E-2,4.338222146E-1
6.797144271E0,-3.158645630E-1,2.430629730E-2,4.636960328E-1
6.802197865E0,-3.600277901E-1,7.230758667E-3,4.966161847E-1
6.807251458E0,-4.038236141E-1,-1.088428497E-2,4.805193543E-1
6.812305052E0,-4.126396179E-1,-6.232261658E-3,4.965195060E-1
6.817358646E0,-4.249429703E-1,3.132820129E-3,4.636381269E-1
6.822412240E0,-4.394457340E-1,-2.984046936E-3,4.380137026E-1
6.827465833E0,-4.359056950E-1,3.609943390E-2,4.053879082E-1
6.832519427E0,-4.311792850E-1,3.807163239E-2,3.907486498E-1
6.837572969E0,-4.335432053E-1,1.749992371E-2,3.275089264E-1
6.842626563E0,-4.038059711E-1,1.966953278E-2,2.859975100E-1
6.847680156E0,-3.753867149E-1,-1.494121552E-2,2.592214644E-1
6.852733750E0,-3.802843094E-1,-5.288124084E-3,2.017141730E-1
6.857787344E0,-3.565635681E-1,-1.230335236E-2,1.755639315E-1
6.862840938E0,-3.378767967E-1,1.394939423E-2,1.615996361E-1
6.867894531E0,-3.465614319E-1,9.152412415E-3,1.416806877E-1
6.872948125E0,-3.492393494E-1,1.152038574E-2,9.584671259E-2
6.878001719E0,-3.351597786E-1,1.035118103E-2,8.949057758E-2
6.883055313E0,-3.449385166E-1,-3.042221069E-4,8.563366532E-2
6.888108906E0,-3.699669838E-1,9.343147278E-3,6.285035610E-2
6.893162500E0,-3.673980236E-1,9.449005127E-3,4.842635989E-2
6.898216094E0,-3.802385330E-1,1.550483704E-2,4.132246971E-2
6.903269688E0,-3.585896492E-1,1.793766022E-2,1.536150277E-2
6.908323281E0,-3.975186348E-1,2.040290833E-2,-2.720414102E-2
6.913376875E0,-3.780169487E-1,2.164554596E-2,-5.514965951E-2
6.918430469E0,-3.680424690E-1,1.698970795E-2,-6.506145000E-2
6.923484063E0,-3.794178963E-1,6.469726562E-3,-9.976086020E-2
6.928537656E0,-3.703887463E-1,1.270294189E-2,-1.281386167E-1
6.933591250E0,-3.340008259E-1,2.367687225E-2,-1.278240979E-1
6.938644844E0,-3.417952061E-1,4.051303864E-2,-1.547130942E-1
6.943698438E0,-3.103377819E-1,4.178619385E-2,-1.779417098E-1
6.948752031E0,-3.016850948E-1,4.424190521E-2,-1.961167604E-1
6.953805625E0,-2.752256393E-1,1.702880859E-2,-1.986550987E-1
6.958859219E0,-2.763783932E-1,-1.674652100E-3,-2.118265033E-1
6.963912813E0,-2.833549976E-1,-1.192092896E-3,-2.141994685E-1
6.968966354E0,-2.781713009E-1,5.512237549E-4,-1.914067864E-1
6.974019948E0,-2.848732471E-1,-8.392333984E-5,-1.866049469E-1
6.979073542E0,-2.915489674E-1,1.709365845E-2,-2.081029713E-1
6.984127135E0,-3.147926331E-1,1.395034790E-2,-2.140522450E-1
6.989180729E0,-3.152163029E-1,1.086235046E-2,-2.413381785E-1
6.994234323E0,-3.262937069E-1,2.561855316E-2,-2.529308796E-1
6.999287917E0,-3.253512383E-1,2.721881866E-2,-2.774218321E-1
7.004341510E0,-3.491837978E-1,2.885723114E-2,-2.907929420E-1
7.009395104E0,-3.643918037E-1,1.746559143E-2,-2.979430556E-1
7.014448698E0,-3.865821362E-1,2.635478973E-2,-3.060324490E-1
7.019502292E0,-3.847613335E-1,3.045558929E-2,-3.021642268E-1
7.024555885E0,-3.876338005E-1,2.980232239E-2,-2.780662179E-1
7.029609479E0,-4.295697212E-1,3.512191772E-2,-2.492468059E-1
7.034663073E0,-4.187824726E-1,3.689002991E-2,-2.135546803E-1
7.039716667E0,-3.985326290E-1,1.730346680E-2,-1.864552498E-1
7.044770260E0,-3.853456974E-1,2.289199829E-2,-1.595386565E-1
7.049823854E0,-3.746585846E-1,4.505729675E-2,-1.566886008E-1
7.054877448E0,-3.152909279E-1,1.722240448E-2,-1.598118842E-1
7.059931042E0,-2.527279854E-1,3.240108490E-2,-1.330251694E-1
7.064984635E0,-1.893291473E-1,4.395866394E-2,-1.135897040E-1
7.070038229E0,-1.336376667E-1,4.116058350E-2,-1.049736887E-1
7.075091823E0,-9.261560440E-2,3.365802765E-2,-8.935675025E-2
7.080145417E0,-5.910253525E-2,3.452014923E-2,-6.674741209E-2
7.085199010E0,-1.036572456E-2,2.590751648E-2,-5.858989060E-2
7.090252604E0,3.804874420E-2,1.859378815E-2,-6.023836136E-2
7.095306198E0,9.302186966E-2,2.078247070E-2,-8.538413048E-2
7.100359792E0,1.166703701E-1,1.939582825E-2,-9.134764224E-2
7.105413333E0,1.187813282E-1,3.227615356E-2,-8.764050156E-2
7.110466927E0,1.338427067E-1,2.247142792E-2,-6.397829205E-2
7.115520521E0,1.107931137E-1,2.224636078E-2,-4.626880586E-2
7.120574115E0,1.236469746E-1,1.731395721E-2,-2.153103054E-2
7.125627708E0,1.149830818E-1,1.003742218E-2,1.252301037E-2
7.130681302E0,1.111090183E-1,5.187988281E-3,6.181547046E-2
7.135734896E0,1.049048901E-1,2.057075500E-2,8.558577299E-2
7.140788490E0,8.563566208E-2,1.800155640E-2,1.234643012E-1
7.145842083E0,6.653738022E-2,2.258968353E-2,1.370337754E-1
7.150895677E0,6.187009811E-2,2.715778351E-2,1.396145374E-1
7.155949271E0,4.535508156E-2,1.862716675E-2,1.303748339E-1
7.161002865E0,4.200553894E-2,1.846981049E-2,1.188862622E-1
7.166056458E0,4.353237152E-2,2.429008484E-2,9.445649385E-2
7.171110052E0,6.528449059E-2,3.127479553E-2,6.314465404E-2
7.176163646E0,7.741236687E-2,2.279758453E-2,3.554649651E-2
7.181217240E0,1.024675369E-1,3.812122345E-2,2.023696899E-2
7.186270833E0,1.487076283E-1,2.484321594E-2,1.572661102E-2
7.191324427E0,1.767411232E-1,1.879310608E-2,-2.907305956E-3
7.196378021E0,2.104036808E-1,2.227306366E-2,-3.703534603E-3
7.201431615E0,2.307403088E-1,2.335739136E-2,-3.263071179E-3
7.206485208E0,2.615180016E-1,4.227638245E-3,-1.105886698E-2
7.211538802E0,2.754027843E-1,1.018714905E-2,-1.196591556E-2
7.216592396E0,3.081793785E-1,1.729106903E-2,-1.504118741E-2
7.221645990E0,3.239183426E-1,3.140640259E-2,-2.597957850E-3
7.226699583E0,3.324012756E-1,3.947257996E-2,-1.885011792E-2
7.231753177E0,3.336749077E-1,1.541614532E-2,1.893281937E-3
7.236806771E0,3.514842987E-1,2.002811432E-2,9.345144033E-3
7.241860365E0,3.393957615E-1,2.101707458E-2,3.568023443E-3
7.246913906E0,3.595144749E-1,2.083492279E-2,-9.649544954E-4
7.251967552E0,3.686239719E-1,2.534675598E-2,-3.042979538E-2
7.257021094E0,3.824021816E-1,2.626228333E-2,-5.369414389E-2
7.262074688E0,3.888854980E-1,3.664684296E-2,-9.462255239E-2
7.267128281E0,4.035220146E-1,3.622436523E-2,-1.126001775E-1
7.272181875E0,4.169199467E-1,2.040004730E-2,-1.255493909E-1
7.277235469E0,4.301772118E-1,2.606391907E-2,-1.323304027E-1
7.282289063E0,4.515609741E-1,1.147174835E-2,-1.389211416E-1
7.287342656E0,4.655437469E-1,6.458282471E-3,-1.061390489E-1
7.292396250E0,4.853162766E-1,-1.276683807E-2,-8.305361867E-2
7.297449844E0,5.059933662E-1,-1.406860352E-2,-3.639110923E-2
7.302503438E0,5.086188316E-1,-4.702568054E-3,1.932539046E-2
7.307557031E0,5.027968884E-1,-6.138801575E-3,5.321349204E-2
7.312610625E0,4.898855686E-1,-5.194664001E-3,9.034635127E-2
7.317664219E0,4.781687260E-1,-6.669044495E-3,1.414557397E-1
7.322717813E0,4.426360130E-1,-1.056671143E-2,1.777463257E-1
7.327771406E0,4.037792683E-1,-9.703636169E-3,2.148821056E-1
7.332825000E0,3.426775932E-1,7.767677307E-3,2.528173327E-1
7.337878594E0,3.045668602E-1,1.675796509E-2,2.844671011E-1
7.342932188E0,2.572617531E-1,1.854705811E-2,3.325236142E-1
7.347985781E0,2.019848824E-1,2.623939514E-2,3.717209399E-1
7.353039375E0,1.173496246E-1,5.326271057E-3,4.141122699E-1
7.358092969E0,4.415845871E-2,2.616310120E-2,4.202568531E-1
7.363146563E0,-2.122950554E-2,1.361942291E-2,4.499977231E-1
7.368200156E0,-6.473422050E-2,2.491664886E-2,4.508697391E-1
7.373253750E0,-1.136708260E-1,3.499126434E-2,4.481734633E-1
7.378307344E0,-1.229674816E-1,4.619598389E-2,4.526429772E-1
7.383360938E0,-1.488780975E-1,1.692676544E-2,4.426064491E-1
7.388414479E0,-1.792924404E-1,1.521968842E-2,4.279220700E-1
7.393468073E0,-1.535487175E-1,1.120281219E-2,4.167740047E-1
7.398521667E0,-1.327528954E-1,1.316452026E-2,4.080868959E-1
7.403575260E0,-1.048934460E-1,8.040428162E-3,3.863255978E-1
7.408628854E0,-7.839679718E-2,-5.750656128E-4,3.385225534E-1
7.413682448E0,-4.039525986E-2,-4.418373108E-3,2.719357312E-1
7.418736042E0,-1.455831528E-2,-1.770496368E-2,1.818494201E-1
7.423789635E0,7.444858551E-3,-2.733421326E-2,1.018517315E-1
7.428843229E0,4.342150688E-2,-2.742099762E-2,-1.294870675E-2
7.433896823E0,4.222917557E-2,-4.975318909E-3,-1.232769117E-1
7.438950417E0,2.797341347E-2,3.028869629E-3,-2.016087174E-1
7.444004010E0,-3.939390182E-3,-4.458427429E-3,-2.659014165E-1
7.449057604E0,3.658056259E-3,-1.170158386E-3,-3.117160797E-1
7.454111198E0,-6.573438644E-3,-1.460075378E-3,-3.177511096E-1
7.459164792E0,-3.215312958E-2,6.564140320E-3,-3.319175243E-1
7.464218385E0,-6.219816208E-2,3.591918945E-2,-3.067440391E-1
7.469271979E0,-8.486986160E-2,3.298187256E-2,-2.758250237E-1
7.474325573E0,-1.097841263E-1,3.597831726E-2,-2.223541141E-1
7.479379167E0,-1.224663258E-1,5.682373047E-2,-1.717903018E-1
7.484432760E0,-9.572935104E-2,4.550647736E-2,-1.704505682E-1
7.489486354E0,-9.658956528E-2,3.307151794E-2,-1.594637632E-1
7.494539948E0,-8.311176300E-2,3.502273560E-2,-1.118140519E-1
7.499593542E0,-8.633971214E-2,4.528045654E-2,-1.156194955E-1
7.504647135E0,-9.918332100E-2,4.590606689E-2,-1.302041709E-1
7.509700729E0,-9.766077995E-2,2.041816711E-2,-1.041706055E-1
7.514754323E0,-9.971261024E-2,1.057815552E-2,-1.056109965E-1
7.519807865E0,-1.064267159E-1,-7.453918457E-3,-1.119542420E-1
7.524861510E0,-1.082391739E-1,-5.115509033E-3,-9.198473394E-2
7.529915104E0,-6.962084770E-2,-1.582145691E-3,-7.458062470E-2
7.534968646E0,-6.580710411E-2,-1.471710205E-2,-7.271085680E-2
7.540022240E0,-7.150912285E-2,-1.230049133E-2,-9.342487156E-2
7.545075833E0,-2.738022804E-2,7.581710815E-4,-1.118041202E-1
7.550129427E0,-2.041816711E-2,-1.121520996E-2,-1.407327801E-1
7.555183021E0,-1.762151718E-3,2.078723907E-2,-1.634247154E-1
7.560236615E0,1.808261871E-2,1.816082001E-2,-1.572468877E-1
7.565290208E0,2.355909348E-2,3.702163696E-3,-1.508350670E-1
7.570343802E0,2.893304825E-2,2.139472961E-2,-1.432860494E-1
7.575397396E0,4.143905640E-2,1.640796661E-2,-1.428210884E-1
7.580450990E0,4.665923119E-2,2.806663513E-2,-1.069118232E-1
7.585504583E0,2.335762978E-2,2.895450592E-2,-8.088377118E-2
7.590558177E0,2.280378342E-2,3.814697266E-2,-8.947183192E-2
7.595611771E0,4.431724548E-3,2.589607239E-2,-9.930307418E-2
7.600665365E0,-3.278183937E-2,1.612091064E-2,-1.065373570E-1
7.605718958E0,-7.929682732E-2,1.113700867E-2,-1.341964155E-1
7.610772552E0,-1.112077236E-1,9.744644165E-3,-1.673115790E-1
7.615826146E0,-1.427683830E-1,2.027130127E-2,-1.917953193E-1
7.620879740E0,-1.441941261E-1,1.180076599E-2,-1.968566924E-1
7.625933333E0,-1.492135525E-1,1.169395447E-2,-2.124447525E-1
7.630986927E0,-1.469295025E-1,1.521205902E-2,-2.064230591E-1
7.636040521E0,-1.316087246E-1,2.085685730E-3,-1.732346863E-1
7.641094115E0,-8.318114281E-2,9.450912476E-4,-1.546417773E-1
7.646147708E0,-3.148555756E-2,4.612922668E-3,-1.302161366E-1
7.651201302E0,-1.935505867E-2,9.461402893E-3,-1.357229203E-1
7.656254896E0,2.937364578E-2,-3.574371338E-3,-1.365096867E-1
7.661308490E0,8.957910538E-2,2.149200439E-2,-1.455213577E-1
7.666362083E0,1.433317661E-1,2.379417419E-2,-1.437744051E-1
7.671415625E0,1.692917347E-1,3.080844879E-2,-1.335904300E-1
7.676469219E0,1.807177067E-1,2.467727661E-2,-1.376702487E-1
7.681522813E0,2.039754391E-1,1.980972290E-2,-1.191377640E-1
7.686576406E0,1.961176395E-1,3.039360046E-2,-1.019049212E-1
7.691630000E0,2.073452473E-1,3.615570068E-2,-7.886645198E-2
7.696683594E0,2.089393139E-1,3.354263306E-2,-5.349192023E-2
7.701737188E0,2.342183590E-1,1.075649261E-2,-9.469836950E-3
7.706790781E0,2.367739677E-1,1.429557800E-2,2.955305576E-2
7.711844375E0,2.535345554E-1,1.186561584E-2,5.163496733E-2
7.716897969E0,3.116474152E-1,9.432792664E-3,8.786189556E-2
7.721951563E0,3.216669559E-1,4.591941833E-3,1.250399351E-1
7.727005156E0,3.327727318E-1,-4.959106445E-3,1.725272983E-1
7.732058750E0,3.699142933E-1,1.008987427E-3,2.267330885E-1
7.737112344E0,3.781454563E-1,5.693435669E-3,2.567940950E-1
7.742165938E0,3.553295135E-1,-3.952026367E-3,3.065464497E-1
7.747219531E0,3.730206490E-1,-4.033088684E-3,3.272545040E-1
7.752273125E0,3.880474567E-1,-1.366710663E-2,3.391942382E-1
7.757326719E0,3.969428539E-1,5.242347717E-3,3.284004331E-1
7.762380313E0,3.913652897E-1,-4.560470581E-3,3.020551205E-1
7.767433906E0,3.965308666E-1,2.342224121E-3,3.010374904E-1
7.772487500E0,4.195146561E-1,2.583026886E-2,3.036296666E-1
7.777541094E0,4.208991528E-1,2.536392212E-2,2.979872823E-1
7.782594688E0,4.233195782E-1,2.365398407E-2,3.185676932E-1
7.787648281E0,4.150230885E-1,2.551269531E-2,3.544093072E-1
7.792701875E0,3.865728378E-1,2.615547180E-2,3.838696480E-1
7.797755417E0,3.426182270E-1,1.123142242E-2,4.021707177E-1
7.802809010E0,3.180363178E-1,1.424694061E-2,4.165968597E-1
7.807862656E0,2.650842667E-1,-1.959323883E-2,4.045539200E-1
7.812916198E0,2.577085495E-1,-2.108287811E-2,3.722439110E-1
7.817969792E0,2.218506336E-1,-1.902389526E-2,3.510055542E-1
7.823023385E0,2.111487389E-1,-2.175617218E-2,3.155478835E-1
7.828076979E0,1.886796951E-1,-5.464553833E-3,2.934326530E-1
7.833130573E0,1.746230125E-1,-7.152557373E-3,2.336006612E-1
7.838184167E0,1.679186821E-1,-2.895641327E-2,2.277287841E-1
7.843237760E0,1.695349216E-1,-3.397750854E-2,2.159678340E-1
7.848291354E0,1.567530632E-1,-2.832984924E-2,1.959538609E-1
7.853344948E0,1.903870106E-1,-3.815460205E-2,1.855957359E-1
7.858398542E0,2.190165520E-1,-4.194545746E-2,1.561427712E-1
7.863452135E0,2.187228203E-1,-1.492404938E-2,1.221221983E-1
7.868505729E0,2.265894413E-1,-5.997657776E-3,8.356444538E-2
7.873559323E0,2.142958641E-1,-6.732940674E-4,5.739326775E-2
7.878612917E0,1.783108711E-1,-9.664535522E-3,2.807195485E-2
7.883666510E0,1.509890556E-1,-1.938819885E-3,7.389694452E-3
7.888720104E0,1.465094090E-1,8.119583130E-3,4.410485923E-2
7.893773698E0,1.075754166E-1,2.633094788E-3,8.411563933E-2
7.898827292E0,8.787417412E-2,7.840156555E-3,1.071141660E-1
7.903880885E0,6.829404831E-2,2.130413055E-2,1.082718372E-1
7.908934479E0,4.050970078E-2,9.704589844E-3,1.413231939E-1
7.913988073E0,4.507589340E-2,1.841831207E-2,1.348026842E-1
7.919041667E0,7.692027092E-2,6.885528564E-3,1.153470427E-1
7.924095260E0,8.470535278E-2,1.726150513E-4,8.551692963E-2
7.929148854E0,1.019206047E-1,3.017425537E-3,7.236990333E-2
7.934202448E0,1.237411499E-1,1.414299011E-2,6.307137012E-2
7.939255990E0,1.191267967E-1,-6.932258606E-3,4.905797541E-2
7.944309635E0,1.287546158E-1,-1.716804504E-2,3.765775263E-2
7.949363229E0,9.193563461E-2,1.143455505E-3,5.471327901E-2
7.954416771E0,3.515720367E-2,6.207466125E-3,5.500558019E-2
7.959470365E0,2.882289886E-2,-6.529808044E-3,1.196555048E-1
7.964523958E0,-8.085489273E-2,-3.463840485E-2,-6.583100557E-2
7.969577552E0,-2.000093460E-2,-1.390552521E-2,-3.589934111E-2
7.974631146E0,-5.924797058E-2,-3.841590881E-2,-6.144753098E-2
7.979684740E0,-3.974199295E-2,2.404403687E-2,1.217454672E-2
7.984738333E0,-1.044955254E-1,7.733345032E-3,-1.360470802E-1
7.989791927E0,1.997423172E-2,1.645469666E-2,1.518782973E-2
7.994845521E0,1.731157303E-2,-2.486896515E-2,-2.134037018E-2
7.999899115E0,3.726100922E-2,5.404472351E-3,5.360053480E-2
8.004952708E0,1.177310944E-3,-5.005264282E-2,-1.174937487E-1
8.010006302E0,1.030383110E-1,8.883476257E-3,-9.119018912E-2
8.015059896E0,1.172924042E-1,-2.531719208E-2,-8.254826069E-2
8.020113490E0,4.835033417E-2,2.032279968E-2,-2.026080787E-1
8.025167083E0,4.287624359E-2,1.097106934E-2,-2.992598414E-1
8.030220677E0,5.514812469E-2,9.943008423E-3,-2.840734124E-1
8.035274271E0,1.992988586E-2,-1.004219055E-2,-2.196903527E-1
8.040327865E0,-8.617258072E-2,-4.902839661E-3,-2.569714785E-1
8.045381458E0,-8.809041977E-2,-1.285171509E-2,-1.965714544E-1
8.050435052E0,-6.492471695E-2,-4.053115845E-3,-8.189180493E-2
8.055488646E0,-1.097545624E-1,-2.387332916E-2,-3.019900620E-2
8.060542240E0,-1.435775757E-1,-1.624011993E-2,-5.283036828E-2
8.065595833E0,-1.260075569E-1,1.866912842E-2,-1.492299139E-2
8.070649427E0,-1.263742447E-1,4.626274109E-3,1.792986691E-2
8.075703021E0,-1.363363266E-1,1.621246338E-4,-8.041246235E-2
8.080756563E0,-9.881591797E-2,1.231765747E-2,-1.352830529E-1
8.085810208E0,-7.937002182E-2,7.764816284E-3,-1.298575699E-1
8.090863802E0,-9.315586090E-2,-1.448154449E-2,-1.444365084E-1
8.095917344E0,-8.427762985E-2,2.755641937E-2,-1.980524361E-1
8.100970938E0,-4.340791702E-2,2.651500702E-2,-1.608752906E-1
8.106024531E0,-3.727340698E-2,6.503105164E-3,-1.060825586E-1
8.111078125E0,-4.307699203E-2,-1.453113556E-2,-1.171838343E-1
8.116131719E0,-2.992773056E-2,-5.751609802E-3,-1.081430614E-1
8.121185313E0,-1.808691025E-2,-2.982139587E-3,-6.717701256E-2
8.126238906E0,-1.703119278E-2,3.329277039E-3,-8.372168243E-2
8.131292500E0,-3.862571716E-2,-1.129150391E-3,-1.608773470E-1
8.136346094E0,-8.942604065E-3,-7.897377014E-3,-2.136465311E-1
8.141399688E0,2.675533295E-3,3.183364868E-3,-2.181458920E-1
8.146453281E0,-1.311683655E-2,-1.551532745E-2,-2.448297292E-1
8.151506875E0,-2.284288406E-2,-3.049850464E-2,-2.414903343E-1
8.156560469E0,-1.809072495E-2,-9.675979614E-3,-2.178689539E-1
8.161614063E0,-1.583433151E-2,-3.313064575E-3,-1.752537638E-1
8.166667656E0,-2.198839188E-2,-4.452037811E-2,-1.508765668E-1
8.171721250E0,-1.741313934E-2,-1.534652710E-2,-1.161714196E-1
8.176774844E0,-2.166271210E-3,2.920150757E-3,-9.852397442E-2
8.181828438E0,-8.564949036E-3,-1.702213287E-2,-1.178850383E-1
8.186882031E0,6.494998932E-3,-1.303195953E-2,-1.456035972E-1
8.191935625E0,7.113933563E-3,1.107025146E-2,-1.563880295E-1
8.196989219E0,5.439281464E-3,-5.998611450E-4,-1.776131839E-1
8.202042813E0,-3.361225128E-3,2.224540710E-2,-2.141379714E-1
8.207096354E0,-7.325649261E-3,6.916999817E-3,-2.193238139E-1
8.212150000E0,-3.624105453E-2,8.309364319E-3,-2.148324549E-1
8.217203594E0,-8.036231995E-2,8.496284485E-3,-1.937312633E-1
8.222257135E0,-1.335878372E-1,7.504463196E-3,-1.442099512E-1
8.227310781E0,-1.543059349E-1,1.840209961E-2,-1.010308862E-1
8.232364323E0,-1.723942757E-1,2.806282043E-2,-5.823843181E-2
8.237417917E0,-2.021784782E-1,1.510429382E-2,-3.854711354E-2
8.242471510E0,-2.151384354E-1,-3.697395325E-3,-2.621623874E-2
8.247525104E0,-2.029528618E-1,1.926231384E-2,-2.959065139E-2
8.252578698E0,-1.849498749E-1,-3.082275391E-3,-3.887711465E-2
8.257632292E0,-1.896944046E-1,-6.266593933E-3,-5.649781227E-2
8.262685885E0,-1.812577248E-1,-9.381294250E-3,-8.814927191E-2
8.267739479E0,-1.539549828E-1,-8.937835693E-3,-9.800525010E-2
8.272793073E0,-1.112799644E-1,-2.266597748E-2,-1.122977734E-1
8.277846667E0,-7.726860046E-2,-2.797126770E-2,-1.132637709E-1
8.282900260E0,-7.441997528E-2,-2.018165588E-2,-1.033940613E-1
8.287953854E0,-6.092596054E-2,-1.839542389E-2,-8.182425052E-2
8.293007448E0,-2.851343155E-2,-2.135086060E-2,-6.048767269E-2
8.298061042E0,-1.425838470E-2,-2.431964874E-2,-3.814333677E-2
8.303114635E0,3.355979919E-3,-1.899051666E-2,-6.631806493E-3
8.308168229E0,-1.724529266E-2,-1.873016357E-3,-1.573020220E-2
8.313221823E0,-6.624650955E-2,-5.116462708E-3,-3.309060633E-2
8.318275417E0,-7.435798645E-2,-1.064395905E-2,-3.024803102E-2
8.323329010E0,-9.541654587E-2,-6.611824036E-3,-4.502469301E-2
8.328382604E0,-9.029436111E-2,8.955001831E-4,-5.835482478E-2
8.333436198E0,-9.097623825E-2,-1.070976257E-3,-3.829227388E-2
8.338489792E0,-7.727003098E-2,3.147029877E-2,-1.472054422E-2
8.343543385E0,-7.205724716E-2,2.690982819E-2,1.452927291E-2
8.348596927E0,-2.768802643E-2,1.528072357E-2,3.510935605E-2
8.353650521E0,3.212451935E-3,7.293701172E-3,7.565036416E-2
8.358704115E0,2.558612823E-2,4.142761230E-3,9.687356651E-2
8.363757708E0,8.477354050E-2,5.871772766E-3,5.229090154E-2
8.368811302E0,1.598935127E-1,-3.185272217E-3,-1.469244063E-2
8.373864896E0,1.985840797E-1,-3.125381470E-2,-2.529817820E-2
8.378918490E0,2.296948433E-1,-1.523590088E-2,-5.820029229E-2
8.383972083E0,2.296671867E-1,-1.360416412E-2,-1.002360359E-1
8.389025677E0,2.285332680E-1,-1.788139343E-2,-1.347440481E-1
8.394079271E0,2.676463127E-1,-3.168201447E-2,-1.546244770E-1
8.399132865E0,2.564787865E-1,-8.614540100E-3,-1.589406729E-1
8.404186458E0,2.287449837E-1,-7.126808167E-3,-1.798129976E-1
8.409240052E0,2.201390266E-1,-3.181266785E-2,-1.827735901E-1
8.414293646E0,2.092452049E-1,7.810592651E-3,-1.307027936E-1
8.419347240E0,1.795053482E-1,-3.538131714E-4,-1.121755838E-1
8.424400833E0,1.308941841E-1,-4.943847656E-3,-1.475400180E-1
8.429454427E0,1.634330750E-1,2.019405365E-2,-1.315919906E-1
8.434508021E0,2.053084373E-1,8.375167847E-3,-8.472982049E-2
8.439561615E0,2.075104713E-1,9.636878967E-3,-8.319006860E-2
8.444615208E0,2.143712044E-1,2.153873444E-2,-9.492437541E-2
8.449668802E0,2.307395935E-1,-5.801200867E-3,-6.128191203E-2
8.454722396E0,2.326192856E-1,-1.397037506E-2,-2.930939198E-3
8.459775990E0,2.380170822E-1,-1.852416992E-2,7.402688265E-3
8.464829583E0,2.230930328E-1,-2.664756775E-2,3.069454432E-2
8.469883177E0,2.140932083E-1,-1.458835602E-2,5.250962079E-2
8.474936771E0,1.908521652E-1,-5.033493042E-3,5.364350975E-2
8.479990365E0,1.427426338E-1,-6.306648254E-3,1.555295289E-2
8.485043958E0,1.092758179E-1,-1.469326019E-2,-1.154261827E-2
8.490097500E0,8.319377899E-2,9.033203125E-3,-6.812264025E-2
8.495151094E0,8.224582672E-2,-1.018142700E-2,-8.479313552E-2
8.500204688E0,4.209613800E-2,-1.962661743E-3,1.810862124E-2
8.505258281E0,1.201438904E-2,3.241539001E-2,1.276268065E-1
8.510311875E0,-3.074073792E-2,2.384376526E-2,1.648247391E-1
8.515365469E0,-1.395034790E-2,-3.726005554E-3,2.263083011E-1
8.520419063E0,1.095104218E-2,6.897926331E-3,2.798109651E-1
8.525472656E0,9.403228760E-3,-2.654266357E-2,2.955185771E-1
8.530526250E0,8.998870850E-3,-7.496833801E-3,2.407927811E-1
8.535579844E0,4.194498062E-2,3.162574768E-2,2.281384319E-1
8.540633438E0,8.418703079E-2,3.127956390E-2,2.169928849E-1
8.545687031E0,1.117362976E-1,1.664543152E-2,9.439595044E-2
8.550740625E0,1.567683220E-1,-1.334857941E-2,4.781676829E-2
8.555794219E0,2.050275803E-1,-3.001785278E-2,4.579851031E-2
8.560847813E0,1.874728203E-1,-4.186534882E-2,6.905137002E-2
8.565901406E0,1.904363632E-1,-2.502918243E-2,1.372394264E-1
8.570955000E0,2.016444206E-1,-3.803157806E-2,2.429131866E-1
8.576008594E0,1.888799667E-1,-2.962398529E-2,3.154788315E-1
8.581062188E0,1.748423576E-1,-4.155445099E-2,2.990126610E-1
8.586115781E0,1.655058861E-1,-5.583667755E-2,3.180651665E-1
8.591169375E0,1.644072533E-1,-5.345535278E-2,3.297752738E-1
8.596222969E0,1.145663261E-1,-1.908111572E-2,2.950376570E-1
8.601276563E0,7.241439819E-2,-1.542091370E-3,3.119930625E-1
8.606330156E0,4.261255264E-2,1.115703583E-2,3.481594324E-1
8.611383750E0,2.035856247E-2,2.383899689E-2,3.960173130E-1
8.616437344E0,2.424335480E-2,1.259422302E-2,4.290279150E-1
8.621490885E0,3.054857254E-2,1.098823547E-2,4.649991393E-1
8.626544479E0,6.518220901E-2,5.782127380E-3,5.027938485E-1
8.631598073E0,4.819536209E-2,-1.731967926E-2,4.710301161E-1
8.636651667E0,3.488111496E-2,9.617805481E-3,4.285761714E-1
8.641705260E0,3.117752075E-2,6.656646729E-3,4.077958763E-1
8.646758854E0,-9.279251099E-3,1.440906525E-2,3.469708562E-1
8.651812448E0,-2.684354782E-2,-1.640319824E-3,2.817484736E-1
8.656866042E0,-3.721761703E-2,-1.285076141E-2,2.160589546E-1
8.661919635E0,-4.502248764E-2,-3.341102600E-2,2.056511492E-1
8.666973229E0,-4.083538055E-2,-5.258941650E-2,1.717717797E-1
8.672026823E0,-4.028558731E-2,-2.889537811E-2,1.762492657E-1
8.677080417E0,-4.679250717E-2,-1.485919952E-2,1.949075162E-1
8.682134010E0,-4.141855240E-2,-1.876258850E-2,1.834758073E-1
8.687187604E0,-4.220199585E-2,-3.458499908E-2,1.635249704E-1
8.692241198E0,-5.133008957E-2,-3.248310089E-2,1.221293211E-1
8.697294792E0,-5.925226212E-2,-1.974105835E-2,7.617425919E-2
8.702348385E0,-6.123876572E-2,-2.969837189E-2,1.186001301E-2
8.707401979E0,-5.946874619E-2,-9.810447693E-3,-4.697319865E-2
8.712455573E0,-7.311630249E-2,1.585674286E-2,-6.474536657E-2
8.717509167E0,-8.312797546E-2,1.992034912E-2,-7.628460228E-2
8.722562760E0,-1.084475517E-1,1.922225952E-2,-7.461568713E-2
8.727616354E0,-1.252050400E-1,1.617813110E-2,-8.018425107E-2
8.732669948E0,-1.657166481E-1,8.337974548E-3,-7.035601139E-2
8.737723542E0,-1.974468231E-1,1.487636566E-2,-6.896010041E-2
8.742777135E0,-2.039308548E-1,9.516716003E-3,-7.232399285E-2
8.747830677E0,-2.091164589E-1,2.440929413E-2,-5.419030786E-2
8.752884271E0,-2.154326439E-1,1.781749725E-2,-6.471072137E-2
8.757937865E0,-1.907901764E-1,-5.320549011E-3,-7.019178569E-2
8.762991458E0,-1.687703133E-1,-2.234935760E-2,-4.838569462E-2
8.768045052E0,-1.504554749E-1,-4.040431976E-2,-4.336020350E-2
8.773098646E0,-1.382017136E-1,-4.048919678E-2,-5.612157285E-2
8.778152240E0,-1.177673340E-1,-2.159309387E-2,-5.340529978E-2
8.783205833E0,-1.069450378E-1,-2.181529999E-2,-5.082657933E-2
8.788259427E0,-9.635353088E-2,-2.329254150E-2,-7.453505695E-2
8.793313021E0,-7.635450363E-2,-3.780841827E-2,-1.124400049E-1
8.798366615E0,-7.911777496E-2,-2.017211914E-2,-1.453888416E-1
8.803420208E0,-8.797073364E-2,-1.701927185E-2,-1.934416890E-1
8.808473802E0,-1.156339645E-1,-1.383590698E-2,-2.398589700E-1
8.813527396E0,-1.312499046E-1,2.014636993E-2,-2.357009500E-1
8.818580990E0,-1.549315453E-1,3.846454620E-2,-2.169449627E-1
8.823634583E0,-1.747312546E-1,4.125499725E-2,-1.731520295E-1
8.828688177E0,-1.800127029E-1,2.983665466E-2,-1.381349266E-1
8.833741771E0,-1.519584656E-1,1.853942871E-2,-7.721245289E-2
8.838795365E0,-1.562719345E-1,3.738403320E-3,-3.360709548E-2
8.843848958E0,-1.427202225E-1,-1.448154449E-2,-2.508245409E-2
8.848902552E0,-1.423673630E-1,1.864433289E-3,-2.977497876E-2
8.853956146E0,-8.257198334E-2,-1.036834717E-2,-3.453816473E-2
8.859009688E0,-1.736545563E-2,1.231193542E-3,-6.061433256E-2
8.864063333E0,3.537464142E-2,-2.290916443E-2,-1.160211489E-1
8.869116875E0,1.019458771E-1,-1.834487915E-2,-1.435894072E-1
8.874170469E0,1.536498070E-1,-3.759860992E-2,-1.529323459E-1
8.879224063E0,2.013607025E-1,-6.144332886E-2,-1.479263008E-1
8.884277656E0,2.378420830E-1,-4.361915588E-2,-1.381257474E-1
8.889331250E0,2.371802330E-1,-3.783512115E-2,-9.514145553E-2
8.894384844E0,2.269587517E-1,-2.738475800E-2,-7.392398268E-2
8.899438438E0,2.261548042E-1,-2.185249329E-2,-6.011492014E-2
8.904492031E0,1.956539154E-1,-4.505157471E-3,-3.470517695E-2
8.909545625E0,1.831727028E-1,1.742172241E-2,-2.487865090E-2
8.914599219E0,1.219630241E-1,7.033348083E-3,-2.815788984E-2
8.919652813E0,1.064810753E-1,6.278991699E-3,-3.958687186E-3
8.924706406E0,8.999776840E-2,7.934570312E-3,2.959823608E-2
8.929760000E0,7.243871689E-2,1.786804199E-2,5.707584321E-2
8.934813594E0,6.218814850E-2,2.655696869E-2,7.821987569E-2
8.939867188E0,5.550241470E-2,1.970100403E-2,7.530400157E-2
8.944920781E0,5.114984512E-2,1.167106628E-2,6.267842650E-2
8.949974375E0,5.043458939E-2,1.688003540E-4,4.772919416E-2
8.955027969E0,4.488325119E-2,-2.976417542E-3,-2.727732062E-3
8.960081563E0,4.648303986E-2,-3.724098206E-3,-4.227128625E-2
8.965135156E0,5.762338638E-2,-8.005142212E-3,-9.073059261E-2
8.970188750E0,5.671882629E-2,-9.919166565E-3,-1.374772191E-1
8.975242344E0,6.175947189E-2,-2.606678009E-2,-1.396825016E-1
8.980295938E0,4.186964035E-2,-1.356697083E-2,-1.406954229E-1
8.985349479E0,1.614284515E-2,-2.257633209E-2,-1.345374286E-1
8.990403073E0,-5.958080292E-3,-2.090644836E-2,-1.140379459E-1
8.995456667E0,-3.259515762E-2,-4.060077667E-2,-1.092826277E-1
9.000510260E0,-1.112017632E-1,-9.066581726E-3,-7.365605235E-2
9.005563854E0,-1.392307281E-1,-2.880573273E-2,-4.310940206E-2
9.010617448E0,-1.444964409E-1,1.464843750E-3,-2.462635934E-2
9.015671042E0,-1.722865105E-1,6.546974182E-3,-2.297681570E-2
9.020724635E0,-2.068758011E-1,1.163959503E-2,-5.363724381E-2
9.025778229E0,-2.175173759E-1,9.531021118E-3,-9.496892244E-2
9.030831823E0,-2.032132149E-1,7.405281067E-3,-1.870978922E-1
9.035885417E0,-1.960821152E-1,4.142761230E-3,-2.747627497E-1
9.040939010E0,-1.676406860E-1,-1.471519470E-3,-3.234054446E-1
9.045992604E0,-1.381134987E-1,3.709793091E-3,-3.439812958E-1
9.051046198E0,-1.121759415E-1,1.607608795E-2,-3.522170782E-1
9.056099792E0,-7.455730438E-2,-6.072998047E-3,-3.365963697E-1
9.061153385E0,-2.667713165E-2,-1.265907288E-2,-2.759841084E-1
9.066206979E0,7.745742798E-3,-1.919269562E-2,-2.205719203E-1
9.071260573E0,1.182556152E-4,-1.509761810E-2,-1.895122379E-1
9.076314167E0,-7.462978363E-3,-1.935195923E-2,-1.992571205E-1
9.081367760E0,-3.884363174E-2,-1.769447327E-2,-1.793458313E-1
9.086421354E0,-4.986143112E-2,2.896308899E-3,-1.867389977E-1
9.091474948E0,-7.366752625E-2,-1.523017883E-3,-1.486693621E-1
9.096528542E0,-1.007013321E-1,8.406639099E-3,-1.214584857E-1
9.101582135E0,-8.708143234E-2,7.603645325E-3,-1.050164029E-1
9.106635729E0,-6.889629364E-2,-2.724647522E-3,-7.454997301E-2
9.111689271E0,-3.669977188E-2,-1.894187927E-2,-3.731742501E-2
9.116742865E0,-2.302169800E-3,-1.360607147E-2,9.135857224E-3
9.121796458E0,3.535509109E-2,4.734039307E-3,4.919166863E-2
9.126850052E0,6.085491180E-2,-8.039474487E-4,8.535939455E-2
9.131903646E0,8.719491959E-2,-7.552146912E-3,1.033598036E-1
9.136957240E0,8.701276779E-2,-1.197052002E-2,1.378502250E-1
9.142010833E0,7.264184952E-2,-8.888244629E-4,1.411294937E-1
9.147064427E0,5.368041992E-2,2.199077606E-2,1.658606827E-1
9.152118021E0,8.597755432E-2,3.639602661E-2,2.070754617E-1
9.157171615E0,6.800174713E-2,1.499462128E-2,2.467273772E-1
9.162225208E0,9.760856628E-3,8.668899536E-4,2.408183217E-1
9.167278802E0,-5.640172958E-2,-1.081562042E-2,2.500775456E-1
9.172332396E0,-7.676887512E-2,4.974365234E-3,2.366237789E-1
9.177385990E0,-9.219074249E-2,-2.446174622E-2,2.363615036E-1
9.182439583E0,-1.314020157E-1,-1.931858063E-2,1.612795740E-1
9.187493177E0,-1.321096420E-1,4.872322083E-3,1.866894513E-1
9.192546771E0,-1.506137848E-1,5.116462708E-3,2.359426320E-1
9.197600365E0,-1.546835899E-1,1.012611389E-2,2.229370773E-1
9.202653958E0,-8.139657974E-2,-1.330757141E-2,2.478740513E-1
9.207707552E0,-8.491945267E-2,-5.090904236E-2,2.856698036E-1
9.212761146E0,-8.363676071E-2,-2.764034271E-2,3.171695173E-1
9.217814740E0,-8.718633652E-2,-2.834033966E-2,3.065553010E-1
9.222868333E0,-8.338260651E-2,-2.417850494E-2,3.468987346E-1
9.227921875E0,-2.494764328E-2,-3.402709961E-3,3.525927067E-1
9.232975469E0,-2.907991409E-2,-3.165054321E-2,2.808347344E-1
9.238029063E0,-3.676462173E-2,-1.219463348E-2,2.452010661E-1
9.243082656E0,-4.190349579E-2,-1.152038574E-3,2.585747242E-1
9.248136250E0,-2.901887894E-2,3.006744385E-2,2.446278185E-1
9.253189844E0,-2.102947235E-2,-1.907348633E-3,1.547916383E-1
9.258243438E0,8.155822754E-3,9.058952332E-3,1.941136718E-1
9.263297031E0,3.918647766E-3,3.183650970E-2,2.188880295E-1
9.268350625E0,-1.570796967E-2,1.288414001E-2,1.707485914E-1
9.273404219E0,-7.176399231E-4,1.547527313E-2,1.560939997E-1
9.278457813E0,4.486083984E-3,-1.290130615E-2,1.236523241E-1
9.283511406E0,-7.102489471E-3,-1.143646240E-2,1.106067449E-1
9.288565000E0,-6.012916565E-2,-3.371810913E-2,4.774366319E-2
9.293618594E0,-6.395149231E-2,3.586769104E-3,5.438856781E-2
9.298672188E0,-4.143428802E-2,-1.393127441E-2,4.820084572E-2
9.303725781E0,-8.100795746E-2,-2.308273315E-2,2.174738050E-2
9.308779375E0,-9.296178818E-2,-2.385425568E-2,4.661495984E-2
9.313832969E0,-1.285991669E-1,-1.751899719E-2,5.580878258E-2
9.318886563E0,-1.270861626E-1,-5.245208740E-4,6.969282031E-2
9.323940156E0,-1.088466644E-1,-8.538246155E-3,8.109410107E-2
9.328993750E0,-8.240985870E-2,-1.646137238E-2,9.710060060E-2
9.334047344E0,-7.647943497E-2,5.559921265E-4,1.128073931E-1
9.339100885E0,-9.919834137E-2,-2.773284912E-2,7.131396234E-2
9.344154479E0,-9.322309494E-2,-2.134990692E-2,6.928740442E-2
9.349208073E0,-7.418680191E-2,4.377365112E-4,3.408639133E-2
9.354261072E0,-8.858585358E-2,-1.002979279E-2,1.830205321E-2
9.359314665E0,-1.122941971E-1,-2.274990082E-2,1.689349115E-2
9.364368259E0,-1.203575134E-1,-1.161861420E-2,2.641099691E-2
9.369421853E0,-1.318330765E-1,-7.660865784E-3,6.797735393E-2
9.374475447E0,-1.254467964E-1,-1.918411255E-2,8.289924264E-2
9.379529040E0,-1.249556541E-1,-1.038455963E-2,1.155637801E-1
9.384582634E0,-1.221084595E-1,1.139545441E-2,1.454865187E-1
9.389636228E0,-1.195158958E-1,1.981925964E-2,1.321805120E-1
9.394689822E0,-1.156253815E-1,4.504203796E-3,1.152861118E-1
9.399743415E0,-1.081924438E-1,-1.542186737E-2,9.722594917E-2
9.404797009E0,-8.891105652E-2,-7.858276367E-3,7.340002060E-2
9.409850603E0,-6.502914429E-2,-1.537322998E-3,4.860614240E-2
9.414904197E0,-5.322742462E-2,3.533363342E-3,2.179558575E-2
9.419957790E0,-3.797340393E-2,-6.875038147E-3,5.962371826E-3
9.425011384E0,-3.585386276E-2,1.819610596E-3,-4.886135459E-3
9.430064978E0,-2.904319763E-2,-9.757041931E-3,2.089172602E-3
9.435118572E0,-8.043766022E-3,-1.411437988E-2,-1.830974221E-2
9.440172165E0,-1.399993896E-3,-8.902549744E-3,-3.276835382E-2
9.445225759E0,3.953409195E-2,-2.158355713E-2,-2.678318322E-2
9.450279353E0,7.068729401E-2,1.481056213E-3,-1.790001988E-3
9.455332895E0,9.328460693E-2,-2.312183380E-2,-2.684950829E-2
9.460386488E0,1.048593521E-1,-8.422851562E-3,-4.115390778E-2
9.465440082E0,4.128599167E-2,1.263618469E-3,-3.276109695E-2
9.470493676E0,8.120536804E-4,1.916885376E-4,-4.100196064E-2
9.475547270E0,-4.279613495E-2,6.302833557E-3,-7.666321099E-2
9.480600863E0,-6.108570099E-2,-4.247665405E-3,-7.258598506E-2
9.485654457E0,-5.411481857E-2,-8.685112000E-3,-3.384904563E-2
9.490708051E0,-8.165645599E-2,-1.072216034E-2,-5.618020892E-2
9.495761645E0,-7.581424713E-2,1.460075378E-3,-8.673273027E-2
9.500815238E0,-6.888961792E-2,-6.663322449E-3,-7.330636680E-2
9.505868832E0,-5.372619629E-2,6.638526917E-3,-9.080840647E-2
9.510922426E0,-5.293273926E-2,-1.221942902E-2,-1.248238832E-1
9.515976020E0,-4.024982452E-2,-1.310348511E-2,-1.465705931E-1
9.521029613E0,-4.658126831E-2,-2.072334290E-3,-1.356774569E-1
9.526083207E0,-4.579210281E-2,-3.032684326E-3,-1.463308930E-1
9.531136801E0,-5.216121674E-2,4.311561584E-3,-1.557788104E-1
9.536190395E0,-5.015325546E-2,1.635169983E-2,-1.367048174E-1
9.541243988E0,-7.663822174E-2,3.370285034E-3,-1.248837188E-1
9.546297582E0,-8.177852631E-2,1.530075073E-2,-1.454507411E-1
9.551351176E0,-1.092181206E-1,1.537513733E-2,-1.824883968E-1
9.556404718E0,-1.281590462E-1,1.067543030E-2,-1.775410473E-1
9.561458363E0,-1.660408974E-1,-9.473800659E-3,-2.010345459E-1
9.566511905E0,-2.141146660E-1,1.811981201E-2,-2.337529063E-1
9.571565499E0,-2.356853485E-1,3.479194641E-2,-2.341610044E-1
9.576619093E0,-2.629842758E-1,2.403450012E-2,-2.426926792E-1
9.581672686E0,-2.733573914E-1,2.723693848E-3,-2.463332117E-1
9.586726280E0,-2.955288887E-1,1.363468170E-2,-2.415541708E-1
9.591779874E0,-2.947068214E-1,5.594253540E-3,-2.225172222E-1
9.596833468E0,-3.022947311E-1,-8.363723755E-3,-2.047848105E-1
9.601887061E0,-2.931880951E-1,-1.863765717E-2,-2.097769678E-1
9.606940655E0,-2.804756165E-1,-1.451587677E-2,-2.005175501E-1
9.611994249E0,-2.596006393E-1,-1.994705200E-2,-1.853328347E-1
9.617047843E0,-2.553973198E-1,-2.052307129E-2,-1.761017740E-1
9.622101436E0,-2.713961601E-1,-2.227306366E-2,-1.443611383E-1
9.627155030E0,-2.765250206E-1,-3.799438477E-3,-1.176477298E-1
9.632208624E0,-2.650599480E-1,-1.756477356E-2,-1.113703102E-1
9.637262218E0,-2.892193794E-1,-1.574230194E-2,-8.007339388E-2
9.642315811E0,-2.988920212E-1,5.078315735E-3,-4.177777469E-2
9.647369405E0,-3.107657433E-1,2.577877045E-2,-2.536040545E-2
9.652422999E0,-3.201808929E-1,3.563880920E-3,-9.041637182E-3
9.657476593E0,-3.044404984E-1,4.167556763E-3,1.550008357E-2
9.662530186E0,-2.875657082E-1,5.999565125E-3,3.858721256E-2
9.667583728E0,-2.780075073E-1,-1.708984375E-3,5.195638537E-2
9.672637322E0,-2.446122169E-1,2.374649048E-4,8.417017758E-2
9.677690915E0,-2.304892540E-1,-7.329940796E-3,1.043643355E-1
9.682744509E0,-2.164554596E-1,-1.125621796E-2,1.101216227E-1
9.687798103E0,-1.705298424E-1,-1.042079926E-2,1.394009739E-1
9.692851697E0,-1.759901047E-1,-1.550769806E-2,1.578352153E-1
9.697905290E0,-1.493678093E-1,-3.776550293E-4,1.690201461E-1
9.702958884E0,-1.513633728E-1,-1.618480682E-2,1.728408337E-1
9.708012478E0,-1.771779060E-1,-1.172924042E-2,1.741616130E-1
9.713066072E0,-2.040190697E-1,-2.145767212E-4,1.611984968E-1
9.718119665E0,-2.174038887E-1,1.011276245E-2,1.707163453E-1
9.723173259E0,-2.199802399E-1,1.205158234E-2,1.671310663E-1
9.728226853E0,-2.331919670E-1,1.161479950E-2,1.434780806E-1
9.733280447E0,-2.272610664E-1,5.269050598E-3,1.247340143E-1
9.738334040E0,-2.355823517E-1,1.205444336E-2,1.193487346E-1
9.743387634E0,-2.365508080E-1,1.067161560E-3,1.436729431E-1
9.748441228E0,-2.280149460E-1,5.603790283E-3,1.690448076E-1
9.753494822E0,-2.052235603E-1,-5.378723145E-4,1.799457818E-1
9.758548415E0,-1.707010269E-1,-1.727962494E-2,1.882185489E-1
9.763602009E0,-1.435995102E-1,-1.014900208E-2,2.048561573E-1
9.768655603E0,-1.192059517E-1,-2.331161499E-2,2.140159607E-1
9.773709197E0,-1.115040779E-1,-2.560424805E-2,2.240745574E-1
9.778762738E0,-1.121749878E-1,-1.481819153E-2,2.257898897E-1
9.783816332E0,-8.558893204E-2,-1.364994049E-2,2.465756387E-1
9.788869926E0,-7.935142517E-2,-7.712364197E-3,2.208388150E-1
9.793923520E0,-5.530595779E-2,-3.265762329E-2,2.393211275E-1
9.798977113E0,-4.212951660E-2,-1.821517944E-2,2.577470839E-1
9.804030707E0,-2.186155319E-2,-1.809406281E-2,2.700427175E-1
9.809084301E0,-3.137111664E-3,-2.641677856E-4,2.724706531E-1
9.814137895E0,-4.724502563E-3,4.375457764E-3,2.605284452E-1
9.819191488E0,1.160097122E-2,1.259231567E-2,2.485508025E-1
9.824245082E0,2.657794952E-2,1.716518402E-2,2.509501576E-1
9.829298676E0,2.949237823E-2,9.795188904E-3,2.260061651E-1
9.834352270E0,4.428052902E-2,1.200103760E-2,2.201236486E-1
9.839405863E0,1.731777191E-2,3.462791443E-3,1.666069478E-1
9.844459457E0,-2.289295197E-3,8.062362671E-3,1.206384003E-1
9.849513051E0,-1.831579208E-2,3.034973145E-2,7.986634970E-2
9.854566645E0,-3.532695770E-2,3.111743927E-2,4.910862446E-2
9.859620238E0,-6.632041931E-2,4.025363922E-2,1.510974765E-2
9.864673832E0,-9.817695618E-2,3.273391724E-2,-1.625369489E-2
9.869727426E0,-1.249909401E-1,1.223182678E-2,-2.591271698E-2
9.874781020E0,-1.374044418E-1,4.924774170E-3,-5.569063127E-2
9.879834613E0,-1.365365982E-1,6.055831909E-3,-7.098276913E-2
9.884888207E0,-1.331968307E-1,-2.262115479E-3,-8.013330400E-2
9.889941801E0,-1.299376488E-1,-6.976127625E-3,-9.048642218E-2
9.894995343E0,-1.230015755E-1,-2.075195312E-3,-1.066425964E-1
9.900048936E0,-1.019425392E-1,-1.030635834E-2,-1.238391101E-1
9.905102530E0,-8.816909790E-2,-1.846313477E-2,-1.265954673E-1
9.910156124E0,-6.258678436E-2,-2.889633179E-2,-1.363577694E-1
9.915209718E0,-3.248405457E-2,-3.093910217E-2,-1.401624978E-1
9.920263311E0,-2.045202255E-2,-1.753997803E-2,-1.308406889E-1
9.925316905E0,1.532697678E-2,-1.368999481E-2,-1.323201209E-1
9.930370499E0,1.861000061E-2,7.286071777E-4,-1.242787838E-1
9.935424093E0,2.422142029E-2,9.088516235E-3,-1.378544569E-1
9.940477686E0,1.669025421E-2,6.672859192E-3,-1.501176655E-1
9.945531280E0,2.140522003E-3,1.023864746E-2,-1.730272472E-1
9.950584874E0,5.556106567E-3,2.922344208E-2,-1.907743216E-1
9.955638468E0,2.086734772E-2,2.671051025E-2,-1.975283325E-1
9.960692061E0,3.964090347E-2,3.728866577E-2,-1.839002371E-1
9.965745655E0,6.191205978E-2,2.289962769E-2,-1.666363925E-1
9.970799249E0,1.041636467E-1,1.100063324E-2,-1.662452221E-1
9.975852843E0,1.198406219E-1,1.220130920E-2,-1.470030695E-1
9.980906436E0,1.115498543E-1,-6.838798523E-3,-1.588866115E-1
9.985960030E0,1.127982140E-1,-7.927894592E-3,-1.624722034E-1
9.991013624E0,1.152348518E-1,-1.256465912E-2,-1.812444776E-1
9.996067218E0,1.224412918E-1,-1.832771301E-2,-1.855821162E-1
1.000112081E1,1.212506294E-1,-1.574802399E-2,-1.910474300E-1
1.000617435E1,1.069707870E-1,-1.558780670E-2,-2.118875384E-1
1.001122795E1,1.035189629E-1,-1.185131073E-2,-2.338184416E-1
1.001628154E1,8.934545517E-2,-1.768302917E-2,-2.078409195E-1
1.002133513E1,9.667158127E-2,-1.159095764E-2,-1.866386831E-1
1.002638873E1,1.134743690E-1,1.592636108E-3,-1.582862437E-1
1.003144232E1,1.397647858E-1,4.968643188E-4,-1.135030910E-1
1.003649592E1,1.372537613E-1,-1.132774353E-2,-7.386057824E-2
1.004154951E1,1.547946930E-1,-7.699012756E-3,-6.334093958E-2
1.004660310E1,1.555156708E-1,-2.941131592E-3,-6.611467898E-2
1.005165670E1,1.680207253E-1,-1.831054688E-3,-5.107371509E-2
1.005671029E1,1.638569832E-1,1.829433441E-2,-4.201091826E-2
1.006176388E1,1.704640388E-1,1.334953308E-2,-4.589907825E-2
1.006681748E1,1.544356346E-1,7.243156433E-3,-5.214463174E-2
1.007187107E1,1.538944244E-1,2.963447571E-2,-4.643739760E-2
1.007692466E1,1.461682320E-1,1.975059509E-2,-2.647053450E-2
1.008197826E1,1.421213150E-1,2.854347229E-3,-2.796531469E-2
1.008703185E1,1.285972595E-1,1.102066040E-2,1.442667842E-2
1.009208545E1,1.223745346E-1,1.440811157E-2,3.393746912E-2
1.009713904E1,1.220726967E-1,-1.669120789E-2,4.244847596E-2
1.010219263E1,1.157307625E-1,-4.857063293E-3,4.729144275E-2
1.010724623E1,9.874343872E-2,-2.517795563E-2,2.826182544E-2
1.011229977E1,6.047630310E-2,-2.623558044E-3,1.994752884E-2
1.011735336E1,5.459356308E-2,-1.823806763E-2,3.075227141E-2
1.012240696E1,6.187152863E-2,-1.641273499E-3,4.399228096E-2
