"Time (s)","Linear Acceleration x (m/s^2)","Linear Acceleration y (m/s^2)","Linear Acceleration z (m/s^2)"
1.183761980E-1,-1.121597290E-1,-3.334331512E-2,2.325579897E-2
1.235307820E-1,-1.047177017E-1,-2.776813507E-2,9.236995131E-3
1.286853650E-1,-8.041307330E-2,-1.706027985E-2,-4.314110056E-2
1.338399480E-1,-8.132225275E-2,-1.605701447E-2,-7.341045886E-2
1.389945320E-1,-7.340425253E-2,-1.290321350E-2,-7.614748925E-2
1.440891670E-1,-6.168180704E-2,5.916595459E-3,-9.143766761E-2
1.491427610E-1,-6.313833594E-2,-5.751609802E-3,-7.204224169E-2
1.541963550E-1,-5.098867416E-2,-1.117610931E-2,-4.115226865E-2
1.592499480E-1,-2.012607455E-2,-1.528739929E-3,-1.638973132E-2
1.643035420E-1,-2.270710468E-2,8.268356323E-4,-6.551812869E-3
1.693571360E-1,-1.597309113E-2,-6.087303162E-3,-6.342399865E-4
1.744107300E-1,-1.193708181E-2,-1.044273376E-2,-1.456509903E-2
1.794643230E-1,-8.046150208E-3,-2.040100098E-2,-3.936097026E-2
1.845179170E-1,1.408308744E-3,-1.388359070E-2,-6.790662557E-2
1.895715110E-1,-1.834511757E-2,-2.031612396E-2,-6.074945629E-2
1.946251050E-1,-1.315492392E-2,2.342224121E-3,-5.623127520E-2
1.996786980E-1,-1.151591539E-3,9.205818176E-3,-4.262817651E-2
2.047322920E-1,-1.272016764E-2,-1.657772064E-2,-2.365851216E-2
2.097858860E-1,-2.044674754E-2,1.335144043E-3,2.704109065E-3
2.148394800E-1,-1.283949614E-2,-9.150505066E-3,7.439348381E-3
2.198930730E-1,-1.364514232E-2,-2.166366577E-2,7.229272276E-3
2.249466670E-1,-1.679494977E-2,-1.174354553E-2,-1.854655333E-2
2.300002610E-1,-8.307158947E-3,-1.258659363E-2,-3.776113689E-2
2.350538550E-1,-1.627185941E-2,-1.923465729E-2,-5.991923809E-2
2.401074480E-1,4.673302174E-4,-8.106231689E-5,-7.442639768E-2
2.451610420E-1,-1.481807232E-2,-1.248359680E-3,-5.124362558E-2
2.502146360E-1,-1.448410749E-2,9.284973145E-3,-2.642966062E-2
2.552682300E-1,-2.581611276E-2,2.073764801E-2,-1.376710366E-2
2.603218230E-1,-2.406939864E-2,7.388114929E-3,1.247221977E-2
2.653754170E-1,-2.468565106E-2,-1.032066345E-2,3.329951316E-2
2.704290110E-1,-2.177667618E-2,-5.407333374E-3,2.565173432E-2
2.754826050E-1,-4.116728902E-2,-7.626533508E-3,3.100451827E-2
2.805361980E-1,-4.142025113E-2,1.010608673E-2,1.173880883E-2
2.855897920E-1,-4.412013292E-2,1.926040649E-2,5.773836281E-3
2.906434380E-1,-3.148660064E-2,2.449035645E-3,8.277663030E-3
2.956969800E-1,-3.910395503E-2,-8.155822754E-3,3.728695679E-3
3.007506250E-1,-3.362125158E-2,2.183914185E-4,2.506569773E-2
3.058042190E-1,-3.763321042E-2,3.736495972E-3,5.411963910E-2
3.108578130E-1,-2.755394578E-2,-2.206802368E-3,6.502471119E-2
3.159114070E-1,-3.995987773E-2,-6.863594055E-3,8.024969697E-2
3.209650000E-1,-3.451210260E-2,6.187438965E-3,7.175578177E-2
3.260185940E-1,-3.271603584E-2,-1.037788391E-2,4.805464670E-2
3.310721880E-1,-3.792694211E-2,-6.663322449E-3,3.546525165E-2
3.361257820E-1,-3.019702435E-2,-4.194259644E-3,5.649915431E-3
3.411793750E-1,-7.301330566E-3,-8.826255798E-3,-2.488681115E-3
3.462329690E-1,-3.533989191E-3,-2.789497375E-3,1.259270357E-3
3.512865630E-1,3.655791283E-3,-5.093574524E-3,2.734054253E-2
3.563401570E-1,1.782327890E-2,-5.006790161E-3,3.759080172E-2
3.613937500E-1,3.052926064E-2,6.851196289E-3,4.413650557E-2
3.664473440E-1,3.597325087E-2,1.145648956E-2,5.292816460E-2
3.715009380E-1,4.841133952E-2,-8.754730225E-3,3.448316082E-2
3.765545320E-1,4.300537705E-2,-1.333236694E-2,4.469429608E-3
3.816081250E-1,5.300238729E-2,-3.698348999E-3,-6.058980245E-3
3.866617190E-1,5.926465988E-2,-1.058578491E-4,-2.004327625E-2
3.917153130E-1,5.126458406E-2,3.431320190E-3,-1.837710850E-2
3.967689070E-1,5.402392149E-2,-9.594917297E-3,-1.084163878E-2
4.018225000E-1,5.675515532E-2,4.700660706E-3,3.694741055E-3
4.068760940E-1,4.399681091E-2,-1.272201538E-3,2.153761312E-2
4.119296880E-1,4.331880808E-2,-8.340835571E-3,3.075252660E-2
4.169832820E-1,4.373383522E-2,7.116317749E-3,3.522774950E-2
4.220368750E-1,4.419660568E-2,3.472328186E-3,1.596010663E-2
4.270904690E-1,2.343174815E-2,-1.311206818E-2,6.372995209E-3
4.321440630E-1,2.190527320E-2,-7.034301758E-3,-6.602745038E-3
4.371976570E-1,3.200665116E-2,1.318931580E-3,-2.637965791E-2
4.422512500E-1,4.573988914E-2,1.300811768E-3,-1.397244167E-2
4.473048440E-1,3.560864925E-2,9.553909302E-3,-1.349835191E-2
4.523584380E-1,1.378881931E-2,-2.388954163E-3,1.056416892E-2
4.574120320E-1,3.474199772E-2,-8.277893066E-3,2.608551458E-2
4.624656250E-1,3.660112619E-2,-4.631996155E-3,3.898181021E-2
4.675192190E-1,1.833862066E-2,-2.350139618E-2,3.756608441E-2
4.725728130E-1,3.212624788E-2,2.795219421E-3,2.304442227E-2
4.776264070E-1,4.105451703E-2,-5.524635315E-3,2.411803417E-2
4.826800000E-1,3.336602449E-2,-5.464553833E-3,1.329296827E-2
4.877335940E-1,3.282496333E-2,2.876281738E-3,8.583890274E-3
4.927871880E-1,1.797235012E-2,4.016876221E-3,9.905980900E-3
4.978408340E-1,2.351570129E-2,3.966331482E-3,6.497268099E-3
5.028943750E-1,1.956060529E-2,-1.999855042E-3,6.584840827E-3
5.079480210E-1,1.553067565E-2,-7.907867432E-3,2.101741359E-2
5.130016150E-1,8.069783449E-3,1.644134521E-3,1.022008155E-2
5.180552090E-1,-6.581038237E-3,-1.259517670E-2,9.011919610E-3
5.231088030E-1,-6.744205952E-3,5.578994751E-4,6.971859839E-4
5.281623960E-1,2.003014088E-4,-7.746696472E-3,-1.343916543E-2
5.332159900E-1,-1.421979070E-2,-4.118919373E-3,-2.156466059E-2
5.382695840E-1,-1.432156563E-2,-5.269050598E-3,-2.117831446E-2
5.433231780E-1,-1.550289989E-2,5.443572998E-3,-2.437242493E-2
5.483767710E-1,-1.901367307E-2,2.078914642E-2,-1.797697507E-2
5.534303650E-1,-2.262720466E-2,8.723258972E-3,-1.870098338E-2
5.584839590E-1,-2.847188711E-2,-8.497238159E-4,-1.472318731E-2
5.635375530E-1,-3.547763824E-2,2.709388733E-3,-1.347092446E-3
5.685911460E-1,-4.951620102E-2,-7.992744446E-3,3.586944658E-3
5.736447400E-1,-5.278480053E-2,-1.266384125E-2,-1.061719097E-2
5.786983340E-1,-4.889824986E-2,-1.017761230E-2,-1.036545262E-2
5.837519280E-1,-4.982596636E-2,-6.530761719E-3,-5.392233841E-3
5.888055210E-1,-5.660319328E-2,5.384445190E-3,-1.636718400E-3
5.938591150E-1,-6.567940116E-2,-2.970695496E-3,9.886156768E-4
5.989127090E-1,-7.475358248E-2,-1.764297485E-3,5.902661942E-3
6.039663030E-1,-5.414274335E-2,-1.361942291E-2,2.512592264E-2
6.090198960E-1,-5.017858744E-2,-1.705741882E-2,4.048320279E-2
6.140734900E-1,-5.817797780E-2,-6.233215332E-3,3.909916803E-2
6.191270840E-1,-5.785137415E-2,-9.743690491E-3,4.716007784E-2
6.241806780E-1,-5.623975396E-2,-1.440715790E-2,4.681737721E-2
6.292342710E-1,-6.185713410E-2,-4.794120789E-3,4.522214085E-2
6.342878650E-1,-5.668956041E-2,-2.383232117E-3,5.447170138E-2
6.393414590E-1,-3.608131409E-2,3.570556641E-3,5.409436300E-2
6.443950530E-1,-4.412093759E-2,3.539085388E-3,4.660116509E-2
6.494486460E-1,-4.025644064E-2,7.067680359E-3,4.758752882E-2
6.545022400E-1,-4.245319963E-2,2.254486084E-3,5.561583862E-2
6.595558340E-1,-2.562326193E-2,-1.201343536E-2,6.237556785E-2
6.646094800E-1,-3.616070747E-2,-1.903820038E-2,5.478869006E-2
6.696630730E-1,-1.223057508E-2,-1.057434082E-2,5.794975907E-2
6.747166670E-1,-7.477849722E-3,-4.553794861E-3,5.396151543E-2
6.797702610E-1,-1.226139069E-2,4.977226257E-3,3.221710771E-2
6.848238550E-1,-1.618474722E-3,1.442718506E-2,3.316451237E-2
6.898774480E-1,-5.188107491E-3,1.667976379E-2,1.994779520E-2
6.949310420E-1,4.314720631E-3,-3.640174866E-3,3.892194480E-2
6.999846360E-1,1.241508126E-2,-4.802703857E-3,3.396729007E-2
7.050382300E-1,6.218224764E-3,-2.394676208E-3,2.214276232E-2
7.100918230E-1,-4.675358534E-3,-4.754066467E-3,3.274370730E-2
7.151454170E-1,-1.065412164E-2,4.778862000E-3,4.214329645E-2
7.201990110E-1,1.062878966E-2,4.733085632E-3,3.460240364E-2
7.252526050E-1,3.289967775E-3,-8.367538452E-3,2.009267919E-2
7.303061980E-1,-7.654815912E-3,1.191139221E-3,8.169849403E-3
7.353597920E-1,-1.365417242E-2,-9.508132935E-3,1.019023824E-3
7.404133860E-1,-2.433672547E-2,5.999565125E-3,-1.822287741E-4
7.454669800E-1,-7.718324661E-3,-1.179695129E-3,-1.668281853E-2
7.505205730E-1,-1.135814190E-2,-3.549575806E-3,2.504744567E-3
7.555741670E-1,-2.793461084E-2,-5.896568298E-3,1.448719390E-2
7.606277610E-1,-3.612405062E-2,4.832267761E-3,1.805921830E-2
7.656813550E-1,-3.354635835E-2,-1.183032990E-2,7.295545656E-3
7.707349480E-1,-4.881143570E-2,-1.052856445E-3,2.556412714E-3
7.757885420E-1,-3.891485929E-2,6.077766418E-3,-6.919139065E-3
7.808421360E-1,-3.990545869E-2,-1.178264618E-2,-1.386751886E-2
7.858957300E-1,-4.802533984E-2,1.811981201E-4,-1.138137560E-2
7.909493230E-1,-5.715870857E-2,6.114006042E-3,-7.652700413E-3
7.960029170E-1,-4.136306047E-2,-2.249717712E-3,-4.246585304E-4
8.010565110E-1,-5.770468712E-2,-8.169174194E-3,2.040773397E-3
8.061101050E-1,-6.200912595E-2,-8.102416992E-3,1.163677219E-2
8.111636980E-1,-6.151425838E-2,-9.136199951E-4,1.045507565E-2
8.162172920E-1,-5.867961049E-2,-5.655288696E-3,1.868904941E-2
8.212709380E-1,-5.701032281E-2,3.271102905E-4,7.875824347E-3
8.263245320E-1,-6.491202116E-2,3.883361816E-3,4.168721382E-3
8.313781250E-1,-5.609858036E-2,1.334476471E-2,-6.479177624E-3
8.364316670E-1,-4.851540923E-2,3.738403320E-3,-1.475389581E-2
8.414853130E-1,-4.936543107E-2,2.625846863E-2,7.839669124E-4
8.465389070E-1,-4.422762990E-2,2.247714996E-2,-2.052968554E-2
8.515925000E-1,-4.977092147E-2,5.672454834E-3,-2.150327154E-2
8.566460940E-1,-5.764222145E-2,-1.099300385E-2,-2.003515139E-2
8.616996880E-1,-5.703246593E-2,-7.334709167E-3,-1.977930963E-2
8.667532820E-1,-5.536177754E-2,-9.648323059E-3,-5.373639055E-3
8.718068750E-1,-3.946009278E-2,-1.550292969E-2,-1.950322278E-2
8.768604690E-1,-4.266902804E-2,1.430416107E-2,-3.357341141E-2
8.819140630E-1,-3.156089783E-2,1.299953461E-2,-4.151749238E-2
8.869676570E-1,-1.938855648E-2,8.144378662E-3,-4.819100350E-2
8.920212500E-1,-2.157765627E-2,9.555816650E-4,-5.481160432E-2
8.970748440E-1,-1.775258780E-2,-9.733200073E-3,-5.425567925E-2
9.021284380E-1,-1.395946741E-2,-2.508068085E-2,-5.608823895E-2
9.071820320E-1,-1.849234104E-2,-9.436607361E-3,-6.363233924E-2
9.122356250E-1,-1.951697469E-2,2.150630951E-2,-5.332313478E-2
9.172892190E-1,2.127230167E-3,1.151084900E-3,-5.977831036E-2
9.223428130E-1,-2.109110355E-4,-4.792213440E-3,-5.425006151E-2
9.273964070E-1,8.199453354E-3,3.561973572E-3,-5.823258311E-2
9.324500000E-1,2.279698849E-3,-9.523391724E-3,-5.515025184E-2
9.375035940E-1,3.546893597E-3,5.626678467E-5,-5.908096582E-2
9.425571880E-1,1.661372185E-2,-1.181411743E-2,-6.422652304E-2
9.476107820E-1,1.062387228E-2,-5.777359009E-3,-5.146366730E-2
9.526643750E-1,1.177611947E-2,1.396179199E-3,-2.214220166E-2
9.577179690E-1,1.649510860E-2,3.762245178E-3,-3.823306412E-3
9.627715630E-1,1.166298985E-2,9.669303894E-3,6.079346873E-3
9.678251570E-1,4.436463118E-3,-9.404182434E-3,2.064831927E-2
9.728787500E-1,2.694708109E-2,-6.951332092E-3,2.558252774E-2
9.779323440E-1,2.315443754E-2,8.539199829E-3,3.046211600E-2
9.829859380E-1,2.184328437E-2,-4.587173462E-3,3.402047977E-2
9.880395840E-1,4.070809484E-2,-2.172470093E-3,2.459945157E-2
9.930931780E-1,2.975401282E-2,-3.337860107E-3,4.849391058E-2
9.981467710E-1,3.306040168E-2,-4.495620728E-3,4.370110482E-2
1.003200365E0,3.639987111E-2,-8.016586304E-3,6.028204784E-2
1.008253959E0,3.605952859E-2,2.733230591E-3,7.438201457E-2
1.013307553E0,2.036556602E-2,2.711296082E-3,7.882574946E-2
1.018361146E0,2.021929622E-2,-2.058982849E-3,8.671532571E-2
1.023414740E0,2.238783240E-2,3.318786621E-4,8.852867782E-2
1.028468334E0,3.295373917E-2,3.318786621E-4,7.844159752E-2
1.033521928E0,3.614273667E-2,1.512527466E-3,8.396130055E-2
1.038575521E0,3.696128726E-2,-2.064704895E-3,6.199506670E-2
1.043629115E0,3.311541677E-2,-8.592605591E-4,5.450323224E-2
1.048682709E0,2.329072356E-2,-8.525848389E-4,4.949175194E-2
1.053736303E0,2.786833048E-2,-9.154319763E-3,6.832671165E-2
1.058789896E0,4.310658574E-2,-7.677078247E-4,6.671801955E-2
1.063843490E0,3.794685006E-2,4.243850708E-4,7.104189694E-2
1.068897084E0,4.702967405E-2,-1.264190674E-2,7.176905125E-2
1.073950678E0,4.065012932E-2,5.268096924E-3,6.057562307E-2
1.079004271E0,3.426331282E-2,9.968757629E-3,6.119385362E-2
1.084057865E0,4.812508821E-2,3.946304321E-3,4.883988947E-2
1.089111459E0,5.359208584E-2,8.659362793E-3,4.374103248E-2
1.094165053E0,3.403958678E-2,9.771347046E-3,4.462110251E-2
1.099218646E0,5.146446824E-2,7.311820984E-3,3.488421440E-2
1.104272240E0,5.798479915E-2,4.870414734E-3,5.128464103E-2
1.109325834E0,5.614128709E-2,1.075935364E-2,5.557280779E-2
1.114379428E0,3.538051248E-2,-1.716613770E-5,5.990140513E-2
1.119433021E0,4.205003381E-2,-1.189327240E-2,5.711369962E-2
1.124486615E0,4.618391395E-2,-1.119613647E-3,5.186969787E-2
1.129540209E0,3.258314729E-2,-4.677772522E-3,2.770962566E-2
1.134593803E0,5.107104778E-2,1.078414917E-2,3.344075754E-2
1.139647396E0,4.560288787E-2,-9.495735168E-3,1.657129079E-2
1.144701042E0,4.025599360E-2,7.247924805E-5,1.177365240E-2
1.149754636E0,4.907751083E-2,1.247406006E-3,2.358544804E-2
1.154808230E0,2.461767197E-2,2.413749695E-3,3.301700577E-2
1.159861823E0,2.770978212E-2,4.757881165E-3,3.992225602E-2
1.164915417E0,3.659057617E-2,3.519058228E-3,4.670318961E-2
1.169969011E0,5.143845081E-2,1.297664642E-2,3.676787019E-2
1.175022605E0,4.004707932E-2,-1.983642578E-4,2.450938150E-2
1.180076198E0,4.054567218E-2,2.164840698E-3,-5.481770262E-3
1.185129792E0,3.636747599E-2,5.699157715E-3,2.915175166E-3
1.190183386E0,3.332036734E-2,-5.044937134E-3,-1.893381821E-3
1.195236980E0,3.264263272E-2,-8.576393127E-3,-3.023457713E-3
1.200290573E0,3.435975313E-2,1.166152954E-2,1.789709320E-3
1.205344167E0,3.239539266E-2,-3.885269165E-3,1.613705419E-2
1.210397761E0,2.466341853E-2,4.445075989E-3,1.368425228E-2
1.215451355E0,2.532044053E-2,-3.912925720E-3,1.358217932E-2
1.220504948E0,3.893902898E-2,4.414558411E-3,2.761423588E-3
1.225558542E0,3.591594100E-2,-1.581382751E-2,-3.229890484E-3
1.230612136E0,3.994959593E-2,-1.094913483E-2,-2.335565537E-2
1.235665730E0,2.147096395E-2,-1.840591431E-4,-1.963325776E-2
1.240719323E0,2.209407091E-2,3.365516663E-3,-2.779799886E-2
1.245772917E0,2.494996786E-2,-2.615928650E-3,-2.875512093E-2
1.250826511E0,1.726484299E-2,1.638793945E-2,-2.844406851E-2
1.255880105E0,1.673597097E-2,7.928848267E-3,-8.187843487E-4
1.260933698E0,2.438485622E-2,7.238388062E-4,-7.551703602E-4
1.265987292E0,1.536604762E-2,1.019763947E-2,1.543883816E-3
1.271040886E0,2.307170630E-2,2.973556519E-3,-1.863585226E-2
1.276094480E0,2.120140195E-2,-1.131153107E-2,-3.155923635E-2
1.281148125E0,8.647948503E-3,-5.298614502E-3,-4.087223858E-2
1.286201667E0,1.758155227E-2,-4.083633423E-3,-5.009201169E-2
1.291255313E0,2.523845434E-2,6.617546082E-3,-4.133658111E-2
1.296308907E0,2.688106894E-2,6.093978882E-4,-4.102811962E-2
1.301362500E0,1.186072826E-2,5.874633789E-4,-3.942825645E-2
1.306416094E0,4.148483276E-3,4.127502441E-3,-2.475267462E-2
1.311469688E0,2.378800511E-2,7.638931274E-3,-2.216091193E-2
1.316523282E0,1.471364498E-2,4.358291626E-4,-2.076269686E-2
1.321576875E0,-1.599788666E-4,4.148483276E-4,-2.885760181E-2
1.326630469E0,1.472187042E-2,-9.102821350E-3,-3.804284334E-2
1.331684063E0,1.772990823E-2,-9.041786194E-3,-5.197354406E-2
1.336737657E0,5.220443010E-3,1.119804382E-2,-5.734539777E-2
1.341791250E0,1.651135087E-2,5.152702332E-3,-4.026840627E-2
1.346844844E0,1.349344850E-2,1.933860779E-2,-4.211363196E-2
1.351898438E0,8.081167936E-3,1.203823090E-2,-2.501033992E-2
1.356952032E0,1.526921988E-3,1.548004150E-2,-2.575218491E-2
1.362005625E0,1.157075167E-2,1.177024841E-2,-1.828521490E-2
1.367059219E0,6.098777056E-3,-2.593040466E-3,-1.926324144E-2
1.372112813E0,-4.540681839E-4,-2.145767212E-4,-2.253352851E-2
1.377166407E0,1.555663347E-2,-8.543014526E-3,-2.460223064E-2
1.382220000E0,1.603221893E-2,-1.917266846E-2,-3.965194896E-2
1.387273594E0,2.831405401E-2,-8.349418640E-3,-3.795626760E-2
1.392327188E0,-4.494160414E-3,4.762649536E-3,-2.919910103E-2
1.397380782E0,1.159542799E-2,-3.604888916E-3,-4.986951128E-3
1.402434375E0,6.032466888E-3,1.539516449E-2,-5.834214389E-3
1.407487969E0,-4.111379385E-3,-1.680278778E-2,1.222892199E-2
1.412541563E0,1.246213913E-3,-9.559631348E-3,1.947110333E-2
1.417595157E0,-4.260748625E-3,1.423931122E-2,2.767356113E-2
1.422648803E0,-4.852503538E-3,-1.082897186E-2,2.407545224E-2
1.427702396E0,-1.024806499E-2,-2.450942993E-3,2.173791267E-2
1.432755990E0,1.171910763E-2,1.110076904E-3,2.421447262E-2
1.437809584E0,-1.510629058E-2,-6.041526794E-3,1.953234710E-2
1.442863178E0,-2.640515566E-3,-2.450942993E-3,2.922304720E-2
1.447916771E0,-1.275750995E-2,-2.449989319E-3,3.519889712E-2
1.452970365E0,-1.685476303E-2,-6.010055542E-3,3.753346205E-2
1.458023959E0,-7.072687149E-4,-4.482269287E-5,5.518649891E-2
1.463077553E0,-1.374036074E-3,-3.625869751E-3,8.097492158E-2
1.468131146E0,-2.099817991E-2,1.132965088E-3,6.853133440E-2
1.473184740E0,-1.210516691E-2,1.059722900E-2,7.521443069E-2
1.478238334E0,-7.974028587E-3,-1.964569092E-4,5.931906402E-2
1.483291928E0,-3.352391720E-2,9.708404541E-4,4.827418178E-2
1.488345521E0,-2.560761571E-2,6.876945496E-3,5.270608142E-2
1.493399115E0,-2.605170012E-2,9.173393250E-3,5.602080002E-2
1.498452709E0,-2.535045147E-2,1.955032349E-3,5.806120485E-2
1.503506303E0,-2.104833722E-2,7.314682007E-4,7.787285745E-2
1.508559896E0,-3.724366426E-3,-6.416320801E-3,7.616947591E-2
1.513613490E0,-1.631233096E-2,-1.637458801E-3,7.549909502E-2
1.518667084E0,-2.404704690E-2,-2.834320068E-3,7.974858582E-2
1.523720678E0,-2.454948425E-2,1.022720337E-2,7.787327468E-2
1.528774271E0,-1.556634903E-2,1.368045807E-2,5.943201855E-2
1.533827865E0,-2.922758460E-2,5.234718323E-3,6.125967205E-2
1.538881459E0,-3.097987175E-2,-9.076118469E-3,4.646728560E-2
1.543935053E0,-2.789366245E-2,-1.899719238E-3,2.950282954E-2
1.548988646E0,-3.073826432E-2,-4.279136658E-3,4.237216339E-2
1.554042240E0,-2.410790324E-2,6.418228149E-3,7.042778283E-2
1.559095834E0,-1.862907410E-2,-1.027393341E-2,6.269969791E-2
1.564149480E0,-2.635964751E-2,-1.900672913E-3,5.383291095E-2
1.569203073E0,-3.521287441E-2,1.233673096E-2,4.129720479E-2
1.574256667E0,-3.443524241E-2,1.340007782E-2,2.431260422E-2
1.579310261E0,-2.301067114E-2,9.705543518E-3,3.772128141E-3
1.584363855E0,-1.892477274E-2,-1.176738739E-2,-1.177145261E-2
1.589417448E0,-3.605869412E-2,-1.050186157E-2,-3.549956717E-3
1.594471042E0,-4.489165545E-2,-1.281261444E-2,6.015322637E-3
1.599524636E0,-3.100582957E-2,-3.231048584E-3,8.230203763E-3
1.604578230E0,-2.909123898E-2,-4.411697388E-3,1.884118654E-2
1.609631823E0,-2.481848001E-2,-9.142875671E-3,1.033985615E-2
1.614685417E0,-2.418801188E-2,-4.340171814E-3,4.269255791E-3
1.619739011E0,-2.242106199E-2,6.355285645E-3,-5.314168520E-3
1.624792605E0,-2.767023444E-2,-8.392333984E-4,-1.235235482E-2
1.629846198E0,-3.409299254E-2,3.894805908E-3,-3.607155010E-2
1.634899792E0,-2.623248100E-2,-5.655288696E-3,-3.461914137E-2
1.639953386E0,-2.906063199E-2,-9.188652039E-3,-3.781989962E-2
1.645006980E0,-4.607984424E-2,-7.942199707E-3,-3.397791460E-2
1.650060573E0,-3.935191035E-2,-6.711959839E-3,-3.485700488E-2
1.655114167E0,-2.669927478E-2,5.193710327E-3,-3.455597162E-2
1.660167761E0,-2.483579516E-2,3.942489624E-3,-2.463979833E-2
1.665221355E0,-3.607589006E-2,1.219749451E-2,-3.746616468E-2
1.670274948E0,-3.768032789E-2,2.577781677E-3,-4.315486178E-2
1.675328542E0,-3.452315927E-2,2.535820007E-3,-5.104966834E-2
1.680382136E0,-4.332348704E-2,1.306533813E-3,-5.178779736E-2
1.685435730E0,-3.760889173E-2,-9.404182434E-3,-5.362946913E-2
1.690489323E0,-4.393374920E-2,8.459091187E-3,-4.710131139E-2
1.695542917E0,-5.023619533E-2,5.817413330E-5,-3.819116578E-2
1.700596511E0,-3.861936927E-2,-1.420593262E-2,-2.231190912E-2
1.705650105E0,-3.656581044E-2,2.512931824E-3,-1.968076639E-2
1.710703750E0,-4.878941178E-2,-7.023811340E-3,-1.939817704E-2
1.715757344E0,-6.567448378E-2,-3.422737122E-3,-2.269727550E-2
1.720810938E0,-4.921114445E-2,-6.975173950E-3,-3.190127760E-2
1.725864532E0,-5.898532271E-2,-1.049709320E-2,-2.439951152E-2
1.730918125E0,-4.610863328E-2,-4.492759705E-3,-3.120132536E-2
1.735971719E0,-4.403802752E-2,1.461029053E-3,-3.189172968E-2
1.741025313E0,-5.035474896E-2,-9.256362915E-3,-3.503963351E-2
1.746078907E0,-4.820337892E-2,-1.869392395E-2,-2.280500904E-2
1.751132500E0,-5.208092928E-2,-7.514953613E-4,1.462465152E-4
1.756186094E0,-4.162076116E-2,-7.610321045E-4,-6.815164350E-3
1.761239688E0,-3.952693939E-2,-1.383018494E-2,4.055175465E-3
1.766293282E0,-6.247001886E-2,-1.864433289E-3,2.996974625E-3
1.771346875E0,-5.073618889E-2,-7.802009583E-3,-3.957934678E-3
1.776400469E0,-4.502049088E-2,-8.942604065E-3,-6.166281179E-3
1.781454063E0,-3.929179907E-2,-1.760482788E-3,-1.189229079E-3
1.786507657E0,-5.021476746E-2,-1.761436462E-3,-4.562752321E-3
1.791561250E0,-6.223380566E-2,-7.698059082E-3,3.706701100E-4
1.796614844E0,-5.165874958E-2,-5.277633667E-3,2.887154929E-3
1.801668438E0,-5.541673303E-2,-5.250930786E-3,8.961115032E-3
1.806722032E0,-3.660407662E-2,-4.777908325E-4,1.855955645E-2
1.811775625E0,-3.570899367E-2,6.980895996E-4,1.970879734E-2
1.816829219E0,-5.495616794E-2,-5.102157593E-4,2.322177589E-2
1.821882813E0,-3.838533163E-2,1.372432709E-2,2.781814337E-2
1.826936407E0,-3.634881973E-2,1.715278625E-2,9.880660102E-3
1.831990000E0,-5.323159695E-2,-4.371643066E-3,8.786520921E-3
1.837043646E0,-6.408390403E-2,-3.165245056E-3,6.576329470E-4
1.842097188E0,-4.985657334E-2,-1.977348328E-2,2.204509825E-2
1.847150834E0,-5.819627643E-2,-7.751464844E-3,3.278293461E-2
1.852204375E0,-6.185442209E-2,-1.766204834E-3,4.458851367E-2
1.857258021E0,-4.875707626E-2,2.983093262E-3,4.917160422E-2
1.862311615E0,-4.894775152E-2,-2.993583679E-3,4.893877357E-2
1.867365209E0,-5.737060308E-2,5.327224731E-3,4.027564824E-2
1.872418803E0,-6.458172202E-2,2.893447876E-3,4.246166348E-2
1.877472396E0,-5.279999971E-2,1.353740692E-2,4.698681459E-2
1.882525990E0,-5.288141966E-2,8.661270142E-3,3.493379429E-2
1.887579584E0,-5.888232589E-2,2.660751343E-4,3.128990531E-2
1.892633178E0,-5.058842897E-2,7.371902466E-3,3.833060712E-2
1.897686771E0,-5.070331693E-2,-4.574775696E-3,5.596397072E-2
1.902740365E0,-4.361909628E-2,-4.549980164E-3,6.623630971E-2
1.907793959E0,-5.561748147E-2,-4.525184631E-3,7.770258188E-2
1.912847553E0,-4.964914918E-2,-6.872177124E-3,7.714160532E-2
1.917901146E0,-5.809646845E-2,2.918243408E-4,5.987382680E-2
1.922954740E0,-6.642797589E-2,5.023002625E-3,5.830337480E-2
1.928008334E0,-6.513291597E-2,-2.152442932E-3,3.651911020E-2
1.933061928E0,-5.550894141E-2,2.279281616E-4,3.400243819E-2
1.938115521E0,-6.740817428E-2,1.089668274E-2,3.856989741E-2
1.943169115E0,-5.895233154E-2,-1.077651978E-3,4.194124043E-2
1.948222709E0,-8.260273933E-2,-7.014274597E-3,6.181231886E-2
1.953276303E0,-6.088680029E-2,-4.591941833E-3,4.822003096E-2
1.958329896E0,-5.487459898E-2,-5.751609802E-3,3.949097544E-2
1.963383490E0,-7.021924853E-2,-2.589511871E-2,5.214063451E-2
1.968437084E0,-6.059825420E-2,-1.263523102E-2,5.165691301E-2
1.973490730E0,-5.696251988E-2,-8.979797363E-3,3.335473686E-2
1.978544323E0,-6.633922458E-2,-6.065368652E-4,1.411004364E-2
1.983597917E0,-6.013020873E-2,1.766204834E-3,1.866044849E-2
1.988651511E0,-6.951078773E-2,-3.007888794E-3,1.486341748E-2
1.993705105E0,-6.815981865E-2,5.314826965E-3,2.182834409E-2
1.998758698E0,-5.829870701E-2,-5.417823792E-3,1.925168373E-2
2.003812292E0,-4.743868113E-2,-3.006935120E-3,2.496187203E-2
2.008865886E0,-6.518915296E-2,-1.248836517E-2,1.873902418E-2
2.013919480E0,-7.926076651E-2,-5.272865295E-3,1.959968731E-2
2.018973073E0,-6.582155824E-2,-1.948070526E-2,9.783392772E-3
2.024026667E0,-6.442564726E-2,-2.709388733E-3,-1.652347855E-2
2.029080261E0,-6.421327591E-2,3.238677979E-3,-1.288929954E-2
2.034133855E0,-4.963675141E-2,8.325576782E-4,-3.319248930E-2
2.039187448E0,-5.068936944E-2,-5.117416382E-3,-2.695614286E-2
2.044241042E0,-6.121459603E-2,8.525848389E-4,-9.064948186E-3
2.049294636E0,-7.041969895E-2,-1.577949524E-2,-1.258509699E-2
2.054348230E0,-5.706930161E-2,-9.720802307E-3,-2.552836761E-2
2.059401823E0,-6.519746780E-2,-1.439666748E-2,-1.943112165E-2
2.064455417E0,-6.128129363E-2,-1.223564148E-3,-3.123407625E-2
2.069509011E0,-6.459581852E-2,1.302337646E-2,-3.577378392E-2
2.074562605E0,-5.474925041E-2,2.225875854E-3,-5.561557412E-2
2.079616198E0,-5.677980185E-2,4.578590393E-3,-6.226615980E-2
2.084669792E0,-4.807960987E-2,-2.583503723E-3,-6.636144966E-2
2.089723386E0,-5.494436622E-2,-4.940032959E-3,-6.340821832E-2
2.094776980E0,-4.744651914E-2,6.970405579E-3,-4.961476475E-2
2.099830573E0,-4.836601019E-2,-9.710311890E-3,-3.847812489E-2
2.104884219E0,-4.211002588E-2,-7.256507874E-3,-3.452604637E-2
2.109937761E0,-4.304370284E-2,-7.629394531E-5,-3.424463794E-2
2.114991407E0,-4.750061035E-2,8.231163025E-3,-2.796711028E-2
2.120045000E0,-4.243901372E-2,3.412246704E-3,-4.785624146E-2
2.125098594E0,-3.387343884E-2,6.942749023E-3,-4.967016354E-2
2.130152188E0,-4.190754890E-2,8.072853088E-3,-4.551546648E-2
2.135205782E0,-5.229425430E-2,8.802413940E-4,-6.042097509E-2
2.140259375E0,-5.784609914E-2,-9.813308716E-3,-4.532785714E-2
2.145312969E0,-5.857303739E-2,-9.732246399E-3,-1.992152259E-2
2.150366563E0,-5.227747560E-2,-1.583099365E-4,-1.606182382E-2
2.155420157E0,-5.072209239E-2,-8.468627930E-3,-1.521651633E-3
2.160473750E0,-4.794728756E-2,2.285957336E-3,1.088866033E-3
2.165527344E0,-5.463165045E-2,1.176357269E-2,-1.536223944E-2
2.170580938E0,-4.232761264E-2,3.354072571E-3,-2.458493225E-2
2.175634532E0,-5.499413610E-2,-2.607345581E-3,-6.426764652E-3
2.180688125E0,-4.150000215E-2,-2.117156982E-4,-2.036672458E-2
2.185741719E0,-5.526971817E-2,6.915092468E-3,-6.962170824E-3
2.190795313E0,-3.819692135E-2,1.041889191E-2,9.936429560E-3
2.195848907E0,-4.261869192E-2,-1.340961456E-2,1.607281528E-2
2.200902500E0,-4.330617189E-2,-3.798484802E-3,1.979904994E-2
2.205956094E0,-5.356016755E-2,3.356933594E-3,3.054058552E-2
2.211009688E0,-5.663660169E-2,5.704879761E-3,3.880421445E-2
2.216063282E0,-5.728289485E-2,-6.211280823E-3,3.386376053E-2
2.221116875E0,-4.119890928E-2,-4.967689514E-3,3.482594714E-2
2.226170469E0,-4.545935988E-2,-1.360893250E-3,3.586782515E-2
2.231224063E0,-4.843682051E-2,1.052665710E-2,3.459049389E-2
2.236277657E0,-4.668658972E-2,5.695343018E-3,2.849986032E-2
2.241331303E0,-4.604712129E-2,9.069442749E-4,3.204559907E-2
2.246384844E0,-4.080083966E-2,6.838798523E-3,5.692911521E-2
2.251438490E0,-4.864102602E-2,4.411697388E-3,6.250707060E-2
2.256492084E0,-5.516839027E-2,9.128570557E-3,7.278952003E-2
2.261545678E0,-4.033440351E-2,-2.180767059E-2,6.379281729E-2
2.266599271E0,-4.464748502E-2,-2.565383911E-4,5.269320309E-2
2.271652865E0,-3.810480237E-2,-6.182670593E-3,4.996713623E-2
2.276706459E0,-2.688348293E-2,-1.888275146E-4,2.469291538E-2
2.281760053E0,-4.191669822E-2,-1.680183411E-2,4.005125165E-2
2.286813646E0,-4.370626807E-2,-1.546764374E-2,4.223937169E-2
2.291867240E0,-3.956067562E-2,2.473831177E-3,4.911080748E-2
2.296920834E0,-4.012227058E-2,-5.848884583E-3,5.587869138E-2
2.301974428E0,-3.481948376E-2,-6.978988647E-3,5.900141597E-2
2.307028021E0,-1.650306582E-2,8.518218994E-3,6.332831085E-2
2.312081615E0,-3.383040428E-2,1.334190369E-3,5.571770296E-2
2.317135209E0,-2.141216397E-2,4.892349243E-3,4.575188458E-2
2.322188803E0,-3.046479821E-2,-2.263069153E-3,3.713322058E-2
2.327242396E0,-2.746534348E-2,-5.794525146E-3,3.928517923E-2
2.332295990E0,-3.409335017E-2,-9.889602661E-4,3.183229268E-2
2.337349584E0,-3.937312961E-2,-3.344535828E-3,2.450204082E-2
2.342403178E0,-1.739707589E-2,-9.243011475E-3,2.908803150E-2
2.347456771E0,-2.182558179E-2,-7.973670959E-3,3.004294448E-2
2.352510365E0,-2.850058675E-2,-7.898330688E-3,3.926916048E-2
2.357563959E0,-1.481866837E-2,4.882812500E-4,3.657848015E-2
2.362617605E0,-4.287400842E-2,-1.493835449E-2,3.859845549E-2
2.367671198E0,-3.022921085E-2,-8.865356445E-3,2.523388527E-2
2.372724792E0,-2.717113495E-2,7.841110229E-3,9.556972422E-3
2.377778386E0,-1.951134205E-2,1.850128174E-3,-1.189440489E-2
2.382831980E0,-3.676822782E-2,-1.713752747E-3,-4.525940400E-3
2.387885573E0,-3.129667044E-2,1.137161255E-2,6.130526774E-3
2.392939167E0,-2.468362451E-2,-7.703781128E-3,1.668353379E-2
2.397992761E0,-1.817104220E-2,-1.692771912E-3,1.778630354E-2
2.403046355E0,-1.997694373E-2,-2.852439880E-3,1.643102989E-2
2.408099948E0,-7.522821426E-3,-5.189895630E-3,1.154048741E-2
2.413153542E0,-2.325236797E-3,1.742076874E-2,1.370960195E-2
2.418207136E0,-1.015308499E-2,7.792472839E-3,-8.226989303E-4
2.423260730E0,-2.574592829E-3,2.079677582E-2,-1.147361379E-2
2.428314323E0,-1.163285971E-2,2.831459045E-3,-1.372482628E-2
2.433367917E0,-2.294439077E-2,9.943008423E-3,-3.265243024E-2
2.438421511E0,-1.280942559E-2,3.786087036E-4,-3.476073593E-2
2.443475105E0,-5.163401365E-3,3.890991211E-4,-1.659269817E-2
2.448528698E0,-1.655912399E-2,6.334304810E-3,-1.413049363E-2
2.453582292E0,-1.128625870E-2,-2.015113831E-3,-1.174741145E-2
2.458635886E0,-9.527802467E-3,3.951072693E-3,-1.883538067E-2
2.463689480E0,-6.687670946E-3,-2.003669739E-3,-2.577253431E-2
2.468743073E0,-1.090288162E-2,-9.094238281E-3,-2.799387649E-2
2.473796667E0,-1.741170883E-2,7.616996765E-3,-2.657543682E-2
2.478850261E0,-9.621351957E-3,-4.300117493E-3,-3.705709428E-2
2.483903855E0,-1.256451011E-2,-7.807731628E-3,-4.740552232E-2
2.488957448E0,-1.192867756E-3,-4.161834717E-3,-3.745719045E-2
2.494011042E0,-1.502612233E-2,-8.862495422E-3,-2.518929169E-2
2.499064688E0,-1.434785128E-2,-7.584571838E-3,-3.324878216E-2
2.504118282E0,-1.134654880E-2,-6.317138672E-3,-2.582281455E-2
2.509171875E0,5.889743567E-3,-9.809494019E-3,-2.310013957E-2
2.514225469E0,-6.709605455E-3,-7.337570190E-3,-3.825213388E-2
2.519279063E0,-9.692132473E-3,1.050949097E-3,-5.569984019E-2
2.524332657E0,2.857744694E-3,-6.061553955E-3,-6.102501601E-2
2.529386250E0,9.067952633E-4,-8.370399475E-3,-5.438820645E-2
2.534439844E0,-1.390409470E-2,1.217842102E-3,-4.779206961E-2
2.539493438E0,-1.077035069E-2,3.602027893E-3,-3.415870294E-2
2.544547032E0,2.884835005E-3,-1.159667969E-3,-3.733412176E-2
2.549600625E0,4.615873098E-3,-2.319335938E-3,-1.794231310E-2
2.554654219E0,4.018932581E-3,-2.278327942E-3,-2.001940832E-2
2.559707813E0,-6.190687418E-3,-1.173973083E-2,-1.264261734E-2
2.564761407E0,5.082339048E-3,2.470016479E-4,-2.187118307E-2
2.569815000E0,1.499879360E-2,-2.113342285E-3,-1.565289125E-2
2.574868594E0,5.899935961E-3,8.604049683E-3,-2.603230998E-2
2.579922188E0,5.137324333E-4,4.990577698E-3,-1.624687016E-2
2.584975782E0,6.997704506E-3,1.090240479E-2,-1.354488824E-2
2.590029375E0,6.365776062E-3,3.710746765E-3,-1.208325010E-2
2.595082969E0,1.161390543E-2,4.883766174E-3,9.608494118E-3
2.600136563E0,2.573311329E-3,1.317214966E-2,2.160926908E-2
2.605190157E0,1.018184423E-2,-1.066398621E-2,2.519800514E-2
2.610243750E0,2.253583074E-2,-5.806922913E-3,2.396265045E-2
2.615297344E0,1.099988818E-2,-8.115768433E-3,3.705913574E-2
2.620350938E0,8.682012558E-4,9.779930115E-3,2.271453664E-2
2.625404584E0,-4.491299391E-3,1.090526581E-2,2.991682850E-2
2.630458178E0,5.686312914E-3,-6.970405579E-3,2.873598598E-2
2.635511771E0,1.215749979E-2,3.792762756E-3,2.876464650E-2
2.640565365E0,1.744812727E-2,2.212524414E-4,4.778727144E-2
2.645618959E0,2.373042703E-2,-1.400852203E-2,5.701965466E-2
2.650672553E0,2.413097024E-2,-2.001762390E-3,6.378377974E-2
2.655726146E0,2.099716663E-2,-5.524635315E-3,6.936498731E-2
2.660779740E0,2.260747552E-2,-1.020812988E-2,6.408139318E-2
2.665833334E0,1.107102633E-2,5.327224731E-3,5.524933338E-2
2.670886928E0,5.641669035E-3,-6.322860718E-4,4.778385162E-2
2.675940521E0,1.083537936E-2,7.699966431E-3,5.462495610E-2
2.680994115E0,1.960751414E-2,-5.402565002E-3,5.185144022E-2
2.686047709E0,2.833691239E-2,2.971649170E-3,5.632679164E-2
2.691101303E0,2.985587716E-2,5.339622498E-3,6.792116910E-2
2.696154896E0,1.827403903E-2,-6.227493286E-4,7.343972474E-2
2.701208490E0,6.773740053E-3,-1.603221893E-2,6.923158467E-2
2.706262084E0,7.345855236E-3,-6.380081177E-3,7.114567608E-2
2.711315678E0,2.917456627E-2,-1.461791992E-2,6.563602388E-2
2.716369271E0,5.773097277E-3,-3.792762756E-3,5.085827783E-2
2.721422865E0,2.295750380E-2,8.130073547E-3,4.211819917E-2
2.726476459E0,2.567815781E-2,8.081436157E-3,4.186845198E-2
2.731530053E0,3.192225099E-2,8.031845093E-3,4.149977118E-2
2.736583646E0,3.102213144E-2,1.273250580E-2,3.880487382E-2
2.741637292E0,2.177459002E-2,1.620578766E-2,5.027038231E-2
2.746690886E0,3.161245584E-2,1.842498779E-3,4.269516096E-2
2.751744480E0,3.671079874E-2,-7.647514343E-3,4.585003853E-2
2.756798073E0,4.039803147E-2,-1.634597778E-3,4.662064835E-2
2.761851667E0,3.231993318E-2,-1.600265503E-3,4.032186419E-2
2.766905261E0,4.319646955E-2,1.148605347E-2,3.276851773E-2
2.771958855E0,3.142797947E-2,3.097534180E-3,1.222135127E-2
2.777012448E0,3.165856004E-2,1.614665985E-2,2.571315272E-3
2.782066042E0,4.264646769E-2,-1.772880554E-3,-1.052716747E-2
2.787119636E0,3.217551112E-2,7.758140564E-3,-4.550939891E-3
2.792173230E0,3.361719847E-2,4.150390625E-3,1.089865528E-2
2.797226823E0,4.218438268E-2,1.006889343E-2,3.666153178E-3
2.802280417E0,4.112312198E-2,-1.017856598E-2,3.543358296E-3
2.807334011E0,4.726877809E-2,1.795768738E-3,1.052416302E-2
2.812387605E0,4.978683591E-2,-6.508827209E-3,-3.812530776E-3
2.817441198E0,5.220830441E-2,-7.626533508E-3,-8.654184639E-3
2.822494792E0,3.809645772E-2,-9.917259216E-3,-2.519060299E-2
2.827548386E0,4.183265567E-2,-3.882408142E-3,-3.922966495E-2
2.832601980E0,3.359127045E-2,-3.835678101E-3,-3.539101779E-2
2.837655573E0,2.191793919E-2,1.283264160E-2,-3.269525990E-2
2.842709167E0,3.653311729E-2,1.274490356E-2,-1.697822101E-2
2.847762761E0,4.611182213E-2,1.027679443E-2,-2.513363585E-2
2.852816355E0,4.380047321E-2,1.897811890E-3,-2.259793505E-2
2.857870000E0,2.138864994E-2,1.377010345E-2,-3.539588302E-2
2.862923594E0,3.708946705E-2,6.549835205E-3,-2.082880959E-2
2.867977188E0,4.792618752E-2,5.323410034E-3,-4.316622764E-2
2.873030782E0,3.366845846E-2,-4.203796387E-3,-5.226074904E-2
2.878084375E0,2.321177721E-2,-4.150390625E-3,-5.290838331E-2
2.883137969E0,4.115048051E-2,-5.426406860E-4,-3.695043176E-2
2.888191563E0,5.192315578E-2,4.225730896E-3,-3.174914420E-2
2.893245157E0,3.055506945E-2,-4.104614258E-3,-2.543172799E-2
2.898298750E0,3.540500998E-2,-9.994506836E-3,-2.035456523E-2
2.903352344E0,3.421860933E-2,7.839202881E-4,-2.484549396E-2
2.908405938E0,4.259926081E-2,-3.967285156E-4,-2.338088490E-2
2.913459532E0,4.387843609E-2,-3.776550293E-4,-2.906604856E-2
2.918513125E0,2.609309554E-2,-3.623962402E-4,-2.754794806E-2
2.923566719E0,3.209161758E-2,-9.846687317E-3,-3.904139996E-2
2.928620313E0,3.700438142E-2,-8.562088013E-3,-4.214574397E-2
2.933673907E0,4.064369202E-2,1.019477844E-3,-1.896924898E-2
2.938727500E0,3.831732273E-2,-2.537727356E-3,-1.870829985E-2
2.943781094E0,3.958663344E-2,1.530361176E-2,-1.957502216E-2
2.948834688E0,4.673537612E-2,-6.179809570E-3,-9.797303006E-3
2.953888282E0,4.306524992E-2,-4.931449890E-3,-1.167117618E-3
2.958941875E0,5.718645453E-2,-1.675224304E-2,6.065798923E-3
2.963995469E0,4.397806525E-2,-9.479522705E-3,-8.838362992E-4
2.969049063E0,4.399803281E-2,-2.007007599E-2,-9.067991748E-3
2.974102657E0,4.263412952E-2,-9.031295776E-4,-4.113134928E-3
2.979156303E0,3.785651922E-2,-4.445075989E-3,3.219961189E-3
2.984209896E0,4.740887880E-2,1.222324371E-2,3.432665020E-3
2.989263490E0,5.204263330E-2,-3.300666809E-3,9.562779218E-3
2.994317084E0,5.073270202E-2,6.234169006E-3,2.267348766E-2
2.999370678E0,4.473069310E-2,-6.863594055E-3,1.193452347E-2
3.004424271E0,4.336065054E-2,-1.273536682E-2,1.910522394E-2
3.009477865E0,3.738981485E-2,-1.143074036E-2,2.504474856E-2
3.014531459E0,4.442074895E-2,-1.132678986E-2,1.903378218E-2
3.019585053E0,4.183596373E-2,-1.730918884E-3,2.136782557E-2
3.024638646E0,3.575682640E-2,1.965904236E-2,2.488355711E-2
3.029692240E0,3.814378381E-2,-6.742477417E-4,2.721475810E-2
3.034745834E0,4.644629359E-2,4.091262817E-3,2.232581191E-2
3.039799428E0,4.277852178E-2,1.692771912E-3,2.820929699E-2
3.044853021E0,4.381412268E-2,-3.062248230E-3,4.709785804E-2
3.049906615E0,4.482582211E-2,2.905845642E-3,4.103925079E-2
3.054960209E0,3.628718853E-2,-6.752014160E-4,4.085955024E-2
3.060013803E0,4.095312953E-2,-1.015853882E-2,4.062031209E-2
3.065067396E0,4.195851088E-2,-1.759529114E-3,4.277234152E-2
3.070120990E0,3.466117382E-2,1.487922668E-2,4.603248090E-2
3.075174584E0,3.339004517E-2,-6.685256958E-4,4.458187893E-2
3.080228178E0,4.273769259E-2,6.464004517E-3,4.547055066E-2
3.085281771E0,4.132384062E-2,-9.017944336E-3,5.103697255E-2
3.090335417E0,4.944849014E-2,4.121780396E-3,5.190104246E-2
3.095389011E0,3.128400445E-2,-1.134300232E-2,5.163134634E-2
3.100442605E0,3.821459413E-2,-5.310058594E-3,5.723928288E-2
3.105496198E0,4.866370559E-2,-2.888679504E-3,5.200988054E-2
3.110549792E0,4.357865453E-2,-9.984016418E-3,5.162035674E-2
3.115603386E0,4.454705119E-2,5.535125732E-3,6.197562441E-2
3.120656980E0,3.118678927E-2,1.736354828E-2,5.197410285E-2
3.125710573E0,3.696137667E-2,1.603507996E-2,5.279800296E-2
3.130764167E0,4.271808267E-2,2.421569824E-2,4.874781892E-2
3.135817761E0,4.355749488E-2,8.582115173E-3,4.127500206E-2
3.140871355E0,4.081356525E-2,-8.109092712E-3,4.095873982E-2
3.145924948E0,3.226298094E-2,3.832817078E-3,4.906156659E-2
3.150978542E0,3.553342819E-2,-6.882667542E-3,4.394567758E-2
3.156032136E0,3.165417910E-2,2.670288086E-3,3.884112090E-2
3.161085730E0,3.012087941E-2,-1.160144806E-2,3.484776616E-2
3.166139323E0,3.929916024E-2,1.551628113E-3,2.378192544E-2
3.171192917E0,3.890436888E-2,8.658409119E-3,2.703494020E-2
3.176246511E0,3.610846400E-2,-5.661964417E-3,1.723483950E-2
3.181300105E0,4.044315219E-2,1.456260681E-2,2.781674732E-3
3.186353698E0,2.934005857E-2,1.380920410E-3,1.098978240E-2
3.191407292E0,2.910387516E-2,1.205253601E-2,1.687531918E-2
3.196460938E0,3.829064965E-2,1.267433167E-3,-1.135563478E-3
3.201514532E0,2.833208442E-2,-1.180648804E-2,3.599812742E-3
3.206568125E0,4.942622781E-2,-1.052093506E-2,7.037663832E-3
3.211621719E0,2.987825871E-2,-1.399993896E-2,-1.084638201E-2
3.216675313E0,2.003514767E-2,1.578998566E-2,-1.189979538E-2
3.221728907E0,3.879404068E-2,1.565647125E-2,-3.085848875E-2
3.226782500E0,2.767446637E-2,4.838943481E-3,-4.013080895E-2
3.231836094E0,2.503269911E-2,1.235961914E-3,-3.037960269E-2
3.236889688E0,3.658214211E-2,-3.526687622E-3,-2.535052598E-2
3.241943282E0,3.252777457E-2,-3.503799438E-3,-3.820075095E-2
3.246996875E0,2.254155278E-2,3.640174866E-3,-3.304702416E-2
3.252050469E0,1.266878843E-2,-8.267402649E-3,-2.443348803E-2
3.257104063E0,2.652904391E-2,-1.295661926E-2,-3.140137345E-2
3.262157657E0,3.203991055E-2,2.021789551E-4,-3.234914690E-2
3.267211250E0,2.674555779E-2,6.126403809E-3,-2.846254408E-2
3.272264844E0,1.440316439E-2,6.067276001E-3,-4.599078745E-2
3.277318438E0,1.397374272E-2,4.820823669E-3,-3.841060773E-2
3.282372032E0,3.970894217E-2,3.583908081E-3,-4.637449607E-2
3.287425625E0,3.089529276E-2,1.174926758E-3,-4.113705084E-2
3.292479219E0,2.687314153E-2,3.532409668E-3,-4.779785872E-2
3.297532813E0,2.996158600E-2,-2.440452576E-3,-4.013054445E-2
3.302586407E0,1.998162270E-2,-2.428054810E-3,-2.665226534E-2
3.307640053E0,2.302151918E-2,-7.166862488E-3,-3.096837923E-2
3.312693646E0,2.011594176E-2,1.187324524E-2,-1.634863205E-2
3.317747240E0,1.607772708E-2,-7.228851318E-3,-3.393296897E-2
3.322800834E0,2.156969905E-2,1.062679291E-2,-3.703261539E-2
3.327854428E0,2.942037582E-2,6.968498230E-3,-3.648620844E-2
3.332908021E0,3.361409903E-2,-3.785133362E-3,-2.043675631E-2
3.337961615E0,2.938780189E-2,4.545211792E-3,-2.250969037E-2
3.343015209E0,2.878814936E-2,-5.001068115E-3,-1.377678849E-2
3.348068803E0,2.933520079E-2,6.897926331E-3,5.582628772E-3
3.353122396E0,3.817212582E-2,-3.856658936E-3,-1.092226896E-2
3.358175990E0,8.933901787E-3,-1.464843750E-3,5.894992501E-5
3.363229584E0,2.554118633E-3,-5.025863647E-3,3.767183051E-3
3.368283178E0,9.255230427E-3,6.873130798E-3,-5.555749871E-3
3.373336771E0,2.536666393E-2,9.175300598E-3,1.775121316E-3
3.378390365E0,1.766297221E-2,5.524635315E-3,-3.609238192E-4
3.383443959E0,5.244791508E-3,3.091812134E-3,-8.891616017E-5
3.388497553E0,1.652038097E-2,6.742477417E-4,1.200568676E-2
3.393551146E0,2.185741067E-2,-1.121711731E-2,2.165413834E-2
3.398604740E0,7.060438395E-3,-5.200386047E-3,3.831485659E-2
3.403658334E0,1.364818215E-2,-1.229572296E-2,4.178135097E-2
3.408711928E0,1.301315427E-2,-6.275177002E-3,3.675718606E-2
3.413765573E0,8.913099766E-3,2.073287964E-3,4.732689261E-2
3.418819115E0,1.079767942E-2,9.164810181E-3,4.102259129E-2
3.423872761E0,1.259094477E-2,1.144599915E-2,3.014354780E-2
3.428926355E0,3.715783358E-3,-5.282402039E-3,3.720810637E-2
3.433979948E0,-1.614898443E-3,-5.256652832E-3,3.112330660E-2
3.439033542E0,-4.527032375E-3,1.891136169E-3,3.822266310E-2
3.444087136E0,1.046696305E-2,-1.119709015E-2,4.995016381E-2
3.449140730E0,2.169904113E-2,-1.112079620E-2,5.208477378E-2
3.454194323E0,1.866823435E-2,-1.223087311E-2,4.936348647E-2
3.459247917E0,2.636155486E-2,1.515960693E-2,5.258368701E-2
3.464301511E0,5.304247141E-3,6.703376770E-3,6.524480134E-2
3.469355105E0,-9.447336197E-6,4.257202148E-3,4.576643929E-2
3.474408698E0,-8.840054274E-3,-5.435943604E-4,4.429856688E-2
3.479462292E0,-2.210527658E-3,4.192352295E-3,1.905747689E-2
3.484515886E0,-1.931723952E-2,-5.355834961E-3,3.674625978E-2
3.489569480E0,8.827477694E-3,1.247882843E-2,3.307063878E-2
3.494623073E0,8.232742548E-3,5.235671997E-3,4.117535800E-2
3.499676667E0,-3.131419420E-3,-7.610321045E-4,5.752111599E-2
3.504730261E0,-1.199659705E-2,-3.147125244E-3,4.877513275E-2
3.509783855E0,-7.745116949E-3,5.168914795E-3,5.069210753E-2
3.514837448E0,-8.277446032E-3,8.668899536E-3,4.314236343E-2
3.519891042E0,-2.312576771E-2,2.044677734E-2,3.681188449E-2
3.524944688E0,-9.755194187E-4,7.201194763E-3,3.067218140E-2
3.529998282E0,-2.285593748E-2,9.499549866E-3,3.637826815E-2
3.535051875E0,-1.852908731E-2,-9.536743164E-5,3.025590442E-2
3.540105469E0,-2.845296264E-2,-1.673221588E-2,3.123135492E-2
3.545159063E0,-8.753478527E-3,-2.136325836E-2,4.172644764E-2
3.550212657E0,-6.918340921E-3,-8.146286011E-3,4.723357037E-2
3.555266250E0,-3.971874714E-3,2.107620239E-4,4.082266986E-2
3.560319844E0,2.601951361E-3,-3.370285034E-3,4.034143314E-2
3.565373438E0,-5.275189877E-3,3.758430481E-3,2.919796109E-2
3.570427032E0,-1.422831416E-2,-2.229690552E-3,7.462300360E-3
3.575480625E0,-1.242315769E-2,1.676177979E-2,2.888129093E-4
3.580534219E0,-2.133187652E-2,1.660060883E-2,-7.953742519E-3
3.585587813E0,-1.590630412E-2,3.383636475E-3,2.818817738E-3
3.590641407E0,-1.046547294E-2,-1.090812683E-2,5.286053754E-3
3.595695000E0,-1.939049363E-2,-1.202487946E-2,6.376501173E-3
3.600748594E0,-1.395082474E-2,-7.343292236E-5,7.459677290E-3
3.605802188E0,-2.290737629E-2,-4.843711853E-3,1.685892232E-2
3.610855782E0,-2.224725485E-2,-1.313495636E-2,8.404440247E-3
3.615909375E0,-1.451557875E-2,-1.177787781E-3,-6.127671804E-3
3.620962969E0,-3.760638833E-2,1.424407959E-2,-2.035443671E-2
3.626016563E0,-1.548671722E-2,3.418922424E-3,-3.444842249E-2
3.631070209E0,-1.968216896E-2,-7.316589355E-3,-2.829053998E-2
3.636123803E0,-2.378204465E-2,-3.713607788E-3,-2.914224006E-2
3.641177396E0,-2.550393343E-2,-1.557636261E-2,-1.689787582E-2
3.646230990E0,-2.366542816E-2,-5.970954895E-3,-1.443191059E-2
3.651284584E0,-2.296876907E-2,-1.069068909E-2,-9.522467852E-3
3.656338178E0,-2.475789189E-2,-1.062393188E-2,-9.464530274E-3
3.661391771E0,-2.403697371E-2,1.081180573E-2,-2.013479918E-2
3.666445365E0,-3.164675832E-2,1.188945770E-2,-3.063873760E-2
3.671498959E0,-2.141723037E-2,3.460884094E-3,-3.391801193E-2
3.676552553E0,-1.955226064E-2,9.347915649E-3,-4.540428519E-2
3.681606146E0,-2.127918601E-2,9.393692017E-4,-4.620062932E-2
3.686659740E0,-2.311271429E-2,-1.689910889E-2,-5.041803420E-2
3.691713334E0,-4.021164775E-2,-1.677799225E-2,-3.562356532E-2
3.696766928E0,-1.680755615E-2,-9.534835815E-3,-2.805618756E-2
3.701820521E0,-3.411042690E-2,-2.016258240E-2,-2.064178884E-2
3.706874115E0,-3.693327308E-2,-8.144378662E-3,-2.284977958E-2
3.711927709E0,-1.121264696E-2,-6.909370422E-3,-2.496154979E-2
3.716981303E0,-1.777243614E-2,2.624511719E-3,-1.874577627E-2
3.722034896E0,-3.858301044E-2,1.326370239E-2,-3.865378350E-2
3.727088490E0,-2.828052640E-2,3.637313843E-3,-4.520234838E-2
3.732142084E0,-2.874767780E-2,-4.722595215E-3,-4.113197699E-2
3.737195730E0,-3.642410040E-2,1.228332520E-3,-2.633751743E-2
3.742249323E0,-3.082746267E-2,-1.185703278E-2,-1.877409592E-2
3.747302917E0,-3.125819564E-2,9.589195251E-3,5.071200430E-4
3.752356511E0,-3.171563148E-2,3.553390503E-3,3.038021736E-3
3.757410105E0,-3.107294440E-2,1.128196716E-3,2.019441687E-3
3.762463698E0,-4.924735427E-2,-7.209777832E-3,2.211119980E-3
3.767517292E0,-4.240217805E-2,-4.673004150E-5,-1.654788479E-2
3.772570886E0,-5.346557498E-2,3.494262695E-3,-1.506022550E-2
3.777624480E0,-4.649445415E-2,-2.487182617E-3,-1.702643558E-2
3.782678073E0,-5.273005366E-2,-1.554489136E-2,-2.023898624E-2
3.787731667E0,-4.113790393E-2,1.780319214E-2,7.410177030E-3
3.792785261E0,-3.906315565E-2,-1.697540283E-4,1.350613590E-2
3.797838855E0,-5.376097560E-2,2.183914185E-3,3.965547681E-2
3.802892448E0,-6.469956040E-2,-1.684761047E-2,3.720558435E-2
3.807946042E0,-4.466772079E-2,-1.672649384E-2,5.005252734E-2
3.812999636E0,-3.556218743E-2,-8.299827576E-3,3.666292503E-2
3.818053230E0,-3.954496980E-2,1.667785645E-2,2.457409166E-2
3.823106823E0,-3.867065907E-2,1.414680481E-2,1.389325876E-2
3.828160417E0,-5.219990015E-2,-2.374649048E-4,2.468515933E-2
3.833214011E0,-4.291060567E-2,1.042938232E-2,3.413700312E-2
3.838267605E0,-6.223386526E-2,4.387855530E-3,3.634308651E-2
3.843321198E0,-4.105082154E-2,1.501560211E-2,5.758659542E-2
3.848374844E0,-4.967567325E-2,-1.599025726E-2,7.271560282E-2
3.853428438E0,-4.396858811E-2,-6.379127502E-3,6.374884397E-2
3.858482032E0,-4.547694325E-2,-1.228046417E-2,6.557156891E-2
3.863535625E0,-5.406489968E-2,6.796836853E-3,6.030288339E-2
3.868589219E0,-6.366246939E-2,7.896423340E-4,5.037603900E-2
3.873642813E0,-4.601356387E-2,1.026058197E-2,3.576765582E-2
3.878696407E0,-5.339485407E-2,1.015663147E-2,3.668270260E-2
3.883750000E0,-5.242028832E-2,2.932548523E-3,4.603748769E-2
3.888803594E0,-6.804254651E-2,5.265235901E-3,4.338054731E-2
3.893857188E0,-4.678079486E-2,-4.294395447E-3,5.139957368E-2
3.898910782E0,-6.613227725E-2,-9.026527405E-3,6.412907690E-2
3.903964375E0,-6.502130628E-2,7.650375366E-3,6.474807858E-2
3.909017969E0,-6.149998307E-2,-1.925468445E-3,6.071746349E-2
3.914071563E0,-5.683609843E-2,-1.142311096E-2,4.823018610E-2
3.919125157E0,-6.303086877E-2,-3.037452698E-3,3.369977325E-2
3.924178750E0,-5.121663213E-2,4.094123840E-3,2.509006113E-2
3.929232344E0,-5.975681543E-2,6.416320801E-3,2.136340365E-2
3.934285938E0,-4.440861940E-2,1.109504700E-2,1.994701475E-2
3.939339532E0,-5.407148600E-2,2.677917480E-3,3.283436224E-2
3.944393125E0,-4.831260443E-2,2.638816833E-3,2.789567225E-2
3.949446771E0,-4.849180579E-2,2.600669861E-3,3.353547305E-2
3.954500365E0,-4.626506567E-2,-1.168060303E-2,3.201930225E-2
3.959553959E0,-5.238148570E-2,-1.160049438E-2,3.397024423E-2
3.964607553E0,-5.488577485E-2,-4.395484924E-3,1.583141275E-2
3.969661146E0,-6.223845482E-2,-3.190040588E-3,2.543745097E-3
3.974714740E0,-6.114470959E-2,1.225090027E-2,4.876903258E-3
3.979768334E0,-5.640813708E-2,1.450538635E-3,1.131517347E-4
3.984821928E0,-5.896958709E-2,-9.536743164E-4,-8.277211338E-3
3.989875521E0,-6.134328246E-2,4.976272583E-3,-3.435167717E-3
3.994929115E0,-6.261602044E-2,3.730773926E-3,-5.785765126E-3
3.999982709E0,-6.030181050E-2,-5.812644958E-3,6.128936540E-3
4.005036303E0,-6.035077572E-2,-3.405570984E-3,-1.048833365E-3
4.010089896E0,-5.799496174E-2,9.666442871E-3,-1.090975944E-3
4.015143490E0,-5.801782012E-2,2.449989319E-3,-1.881452650E-2
4.020197084E0,-4.837739468E-2,3.605842590E-3,-3.164415061E-2
4.025250678E0,-4.491913319E-2,-5.934715271E-3,-3.604262322E-2
4.030304271E0,-4.028749466E-2,-2.336502075E-3,-1.792528294E-2
4.035357865E0,-5.225294828E-2,5.980491638E-3,-1.767506637E-2
4.040411459E0,-6.764966249E-2,-2.389907837E-3,-2.225130051E-2
4.045465053E0,-6.395518780E-2,3.553390503E-3,-1.377697848E-2
4.050518698E0,-6.503975391E-2,-4.863739014E-5,-2.438076213E-2
4.055572292E0,-6.378653646E-2,-1.074504852E-2,-1.348428428E-2
4.060625886E0,-6.012421846E-2,-4.731178284E-3,-2.278155833E-2
4.065679480E0,-5.885148048E-2,-8.263587952E-3,-2.373722754E-2
4.070733073E0,-5.883687735E-2,-8.209228516E-3,-2.351547219E-2
4.075786667E0,-6.583896279E-2,1.592636108E-4,-2.444989607E-2
4.080840261E0,-5.969458818E-2,-4.599571228E-3,-2.778259479E-2
4.085893855E0,-4.661515355E-2,-4.573822021E-3,-2.390455641E-2
4.090947448E0,-6.202861667E-2,1.088523865E-2,-2.240147814E-2
4.096001042E0,-7.255023718E-2,-1.085281372E-3,-9.116251953E-3
4.101054636E0,-6.164708734E-2,-2.274513245E-3,-3.017956391E-3
4.106108230E0,-6.517046690E-2,1.293182373E-3,-5.775080062E-4
4.111161823E0,-6.015822291E-2,-1.059627533E-2,-2.535501122E-2
4.116215417E0,-6.472986937E-2,-1.882553101E-2,-2.627243102E-2
4.121269011E0,-6.328257918E-2,1.503944397E-3,-2.710862830E-2
4.126322605E0,-6.184729934E-2,1.483917236E-3,-3.037211299E-2
4.131376198E0,-5.686283112E-2,-2.097129822E-3,-1.102372911E-2
4.136429792E0,-6.146186590E-2,8.594512939E-3,-1.425439678E-2
4.141483386E0,-7.669118047E-2,6.140708923E-3,-1.394230593E-2
4.146536980E0,-6.449073553E-2,6.080627441E-3,-6.603655405E-3
4.151590625E0,-4.995739460E-2,-8.222579956E-3,1.878135838E-3
4.156644219E0,-6.409540772E-2,-1.290988922E-2,5.509433337E-3
4.161697813E0,-4.953509569E-2,-9.374618530E-4,-2.638213336E-4
4.166751407E0,-5.886775255E-2,-1.043319702E-2,9.304729290E-3
4.171805000E0,-5.027118325E-2,-1.866149902E-2,6.998874713E-3
4.176858594E0,-5.831992626E-2,1.668930054E-3,3.615941852E-3
4.181912188E0,-5.919426680E-2,2.837181091E-3,-1.015394926E-3
4.186965782E0,-6.371340156E-2,3.993034363E-3,3.904849291E-3
4.192019375E0,-5.497062206E-2,7.519721985E-3,2.178138867E-2
4.197072969E0,-5.582755804E-2,-9.166717529E-3,3.244746476E-2
4.202126563E0,-5.672255158E-2,-1.621723175E-2,2.878983505E-2
4.207180157E0,-4.698711634E-2,-1.015377045E-2,2.270198241E-2
4.212233750E0,-5.621996522E-2,-1.126098633E-2,2.504749224E-2
4.217287344E0,-5.947077274E-2,-8.796691895E-3,2.845419571E-2
4.222340938E0,-5.672886968E-2,-5.165100098E-3,3.078287654E-2
4.227394532E0,-7.303333282E-2,9.118080139E-3,3.310770914E-2
4.232448125E0,-6.314677000E-2,2.209377289E-2,2.830585837E-2
4.237501719E0,-6.629443169E-2,1.122379303E-2,3.886837885E-2
4.242555313E0,-6.937056780E-2,4.453659058E-4,4.585901275E-2
4.247608959E0,-5.948424339E-2,-7.514953613E-4,5.038655922E-2
4.252662553E0,-3.645607829E-2,-1.142883301E-2,4.293041676E-2
4.257716146E0,-4.463511705E-2,-1.371288300E-2,4.743869603E-2
4.262769740E0,-6.686970592E-2,-5.426406860E-4,4.828551784E-2
4.267823334E0,-4.977589846E-2,5.394935608E-3,4.561031610E-2
4.272876928E0,-4.828676581E-2,-6.524085999E-3,4.061352089E-2
4.277930521E0,-5.741804838E-2,7.773399353E-3,3.570461646E-2
4.282984115E0,-4.744988680E-2,-6.535530090E-3,2.727669850E-2
4.288037709E0,-3.757989407E-2,-4.108428955E-3,3.891728073E-2
4.293091303E0,-3.375765681E-2,-2.888679504E-3,5.403506011E-2
4.298144896E0,-5.477488041E-2,-9.985923767E-3,4.998957738E-2
4.303198490E0,-5.437064171E-2,7.801055908E-4,5.201952904E-2
4.308252084E0,-4.094222188E-2,-1.584815979E-2,3.496329859E-2
4.313305678E0,-4.651296139E-2,2.091407776E-3,3.708734363E-2
4.318359271E0,-4.012107849E-2,8.897781372E-4,4.162619263E-2
4.323412865E0,-4.092010856E-2,8.005142212E-3,3.185511380E-2
4.328466459E0,-5.703854561E-2,9.130477905E-3,2.685324289E-2
4.333520053E0,-4.224950075E-2,7.467269897E-4,3.140303493E-2
4.338573646E0,-3.711053729E-2,5.490303040E-3,2.891307510E-2
4.343627240E0,-4.265260696E-2,1.019477844E-2,2.744762972E-2
4.348680886E0,-5.636727810E-2,-4.130363464E-3,3.546291590E-2
4.353734480E0,-5.707630515E-2,-5.282402039E-3,2.449564263E-2
4.358788073E0,-4.224151373E-2,-1.117038727E-2,2.541353740E-2
4.363841667E0,-3.940108418E-2,-9.886741638E-3,2.630733326E-2
4.368895261E0,-5.081403255E-2,-2.167129517E-2,1.766639017E-2
4.373948855E0,-5.024605989E-2,-1.192092896E-4,4.501340445E-3
4.379002448E0,-4.733893275E-2,1.412963867E-2,7.838984020E-3
4.384056042E0,-6.463629007E-2,2.144813538E-3,-5.243276246E-3
4.389109636E0,-4.852110147E-2,-2.431869507E-4,-1.115592383E-2
4.394163230E0,-2.894881368E-2,1.163387299E-2,1.976564527E-3
4.399216823E0,-3.203353286E-2,6.794929504E-3,-1.222609263E-2
4.404270417E0,-6.244063377E-2,-3.938674927E-3,-1.475743949E-3
4.409324011E0,-4.396963120E-2,-3.902435303E-3,-8.561914787E-3
4.414377605E0,-4.700475931E-2,8.831024170E-4,-2.161428332E-2
4.419431198E0,-2.634882927E-2,-2.682685852E-3,-1.900487952E-2
4.424484792E0,-2.819246054E-2,-1.462936401E-3,-2.595874853E-2
4.429538386E0,-3.956276178E-2,-6.192207336E-3,-2.807340212E-2
4.434591980E0,-2.475294471E-2,-2.571105957E-3,-2.659316361E-2
4.439645573E0,-4.686582088E-2,-6.104469299E-3,-2.986023389E-2
4.444699219E0,-3.077778220E-2,-7.233619690E-3,-3.666356951E-2
4.449752761E0,-2.661889791E-2,-1.665878296E-2,-3.147712722E-2
4.454806407E0,-3.675466776E-2,-1.176166534E-2,-2.050534636E-2
4.459860000E0,-4.566434026E-2,-8.094787598E-3,-2.383916639E-2
4.464913594E0,-3.078854084E-2,-6.833076477E-3,-3.661107644E-2
4.469967188E0,-2.664464712E-2,-1.032829285E-2,-3.019534238E-2
4.475020782E0,-4.279124737E-2,6.385803223E-3,-3.460750729E-2
4.480074375E0,-3.140985966E-2,5.156517029E-3,-3.779307380E-2
4.485127969E0,-3.436824679E-2,-4.372596741E-3,-3.971824422E-2
4.490181563E0,-2.775993943E-2,1.611709595E-3,-3.341046348E-2
4.495235157E0,-3.073355556E-2,8.730888367E-3,-2.829646692E-2
4.500288750E0,-2.777731419E-2,-1.032543182E-2,-2.430717647E-2
4.505342344E0,-2.833127975E-2,-1.378726959E-2,-1.931487769E-2
4.510395938E0,-2.057120204E-2,2.958297729E-3,-2.490982041E-2
4.515449532E0,-3.183865547E-2,1.006889343E-2,-3.767274693E-2
4.520503125E0,-1.686632633E-2,5.250930786E-3,-1.459606085E-2
4.525556719E0,-1.751121879E-2,1.657485962E-3,-1.905928925E-2
4.530610313E0,-3.123882413E-2,7.590293884E-3,-1.875309274E-2
4.535663959E0,-2.343928814E-2,-7.890701294E-3,-1.815744676E-3
4.540717553E0,-2.170062065E-2,-1.256179810E-2,-1.837911084E-2
4.545771146E0,-1.755705476E-2,-6.509780884E-3,9.770197794E-4
4.550824740E0,-1.232132316E-2,6.613731384E-3,3.550453112E-3
4.555878334E0,-1.769185066E-2,1.824378967E-3,1.789706945E-2
4.560931928E0,-1.245492697E-2,-8.864402771E-3,3.618281335E-3
4.565985521E0,-7.155805826E-3,-1.653671265E-3,3.810696304E-3
4.571039115E0,-3.387627006E-2,7.505416870E-4,1.587224938E-2
4.576092709E0,-8.263826370E-3,6.691932678E-3,2.063521184E-2
4.581146303E0,-4.247248173E-3,3.087043762E-3,1.948458701E-2
4.586199896E0,-2.026277781E-2,-4.042625427E-3,2.071482688E-2
4.591253490E0,-1.607066393E-2,-2.806663513E-3,1.244158670E-2
4.596307084E0,-1.780340075E-2,-1.463794708E-2,3.153855354E-2
4.601360678E0,-2.903333306E-2,-1.331329346E-2,4.216541722E-2
4.606414271E0,-1.881754398E-2,-1.081275940E-2,4.080417752E-2
4.611467865E0,-1.583969593E-2,-9.520530701E-3,3.693128377E-2
4.616521459E0,-1.763483882E-2,7.191658020E-3,2.371170372E-2
4.621575053E0,-1.574799418E-2,-5.908966064E-3,4.735862836E-2
4.626628646E0,-6.875425577E-3,1.908397675E-2,3.759874403E-2
4.631682292E0,-1.944398880E-2,1.418972015E-2,4.099264741E-2
4.636735886E0,-2.125144005E-3,-1.564025879E-4,5.152658746E-2
4.641789480E0,-1.350089908E-2,-7.262229919E-3,5.364663154E-2
4.646843073E0,1.081526279E-2,4.685401917E-3,4.855190590E-2
4.651896667E0,6.544768810E-3,-1.195526123E-2,5.547922477E-2
4.656950261E0,-1.563236117E-2,2.956390381E-5,6.231807172E-2
4.662003855E0,-1.374703646E-2,4.796981812E-3,4.993936419E-2
4.667057448E0,1.150161028E-3,1.189708710E-2,5.199996755E-2
4.672111042E0,7.659047842E-3,1.656627655E-2,4.329971969E-2
4.677164636E0,4.480957985E-3,1.169300079E-2,4.066786543E-2
4.682218230E0,2.743363380E-3,-3.813743591E-3,3.554715589E-2
4.687271823E0,2.056092024E-3,-1.088714600E-2,4.124255851E-2
4.692325417E0,-1.171356440E-2,-4.844665527E-3,4.098688439E-2
4.697379011E0,-3.940552473E-3,-1.190948486E-2,3.715300560E-2
4.702432605E0,6.141752005E-3,-2.366256714E-2,4.989797622E-2
4.707486198E0,6.658524275E-3,-9.201049805E-3,4.710477963E-2
4.712539792E0,2.377331257E-3,-4.360198975E-3,3.843025118E-2
4.717593386E0,1.120483875E-2,-7.438659668E-4,3.102770634E-2
4.722646980E0,2.361068130E-2,4.692077637E-4,2.256431058E-2
4.727700625E0,8.580267429E-3,4.863739014E-4,2.238667756E-2
4.732754219E0,2.213460207E-2,-4.247665405E-3,2.572586760E-2
4.737807813E0,1.294595003E-2,1.835727692E-2,2.552290633E-2
4.742861407E0,1.098653674E-2,9.912490845E-3,1.579479314E-2
4.747915000E0,1.141762733E-2,-1.151943207E-2,2.641775832E-2
4.752968594E0,3.550767899E-3,4.653930664E-4,2.966336347E-2
4.758022188E0,8.837491274E-3,6.414413452E-3,2.455728129E-2
4.763075782E0,1.526722312E-2,5.193710327E-3,2.071260475E-2
4.768129375E0,2.042603493E-2,-1.954078674E-3,1.466196403E-2
4.773182969E0,2.204114199E-2,9.951591492E-3,-2.111656824E-3
4.778236563E0,-2.533286810E-3,9.886741638E-3,-5.749205593E-3
4.783290157E0,2.537366748E-2,-2.046585083E-3,-8.077579550E-3
4.788343750E0,1.857757568E-2,3.923416138E-3,-6.797628943E-3
4.793397344E0,2.492618561E-2,1.535415649E-3,3.777993843E-4
4.798450938E0,7.586240768E-3,7.480621338E-3,-5.579504650E-3
4.803504532E0,2.699354291E-2,2.685546875E-3,-3.149444703E-3
4.808558125E0,2.143150568E-2,-5.626678467E-3,-1.852958836E-2
4.813611771E0,2.303829789E-2,-8.096694946E-4,-1.485197619E-2
4.818665365E0,1.982289553E-2,-1.384353638E-2,-1.115705073E-2
4.823718959E0,-4.672557116E-3,-7.772445679E-3,-2.048919164E-2
4.828772553E0,7.281005383E-4,1.842975616E-2,-2.385305241E-2
4.833826146E0,1.428738236E-2,-6.635665894E-3,-2.478551120E-2
4.838879740E0,1.714074612E-2,7.684707642E-3,-3.283263743E-2
4.843933334E0,3.657418489E-2,-1.372718811E-2,-2.416237816E-2
4.848986928E0,1.898598671E-2,-1.834201813E-2,-2.391978353E-2
4.854040521E0,1.584964991E-2,-7.486343384E-3,-2.605439723E-2
4.859094115E0,2.820166945E-2,-2.803802490E-4,-3.395376727E-2
4.864147709E0,1.902294159E-2,2.114295959E-3,-2.880721539E-2
4.869201303E0,1.471439004E-2,8.052825928E-3,-3.208921477E-2
4.874254896E0,3.177881241E-2,1.156616211E-2,-3.776077554E-2
4.879308490E0,4.752892256E-2,9.116172791E-3,-4.093371704E-2
4.884362084E0,3.344079852E-2,-4.367828369E-4,-3.449182212E-2
4.889415678E0,1.587861776E-2,1.958847046E-3,-3.054140136E-2
4.894469271E0,2.693742514E-2,7.734298706E-4,-2.417412214E-2
4.899522865E0,3.196865320E-2,5.533218384E-3,-2.391522750E-2
4.904576511E0,3.224000335E-2,-9.926795959E-3,-1.296232268E-2
4.909630105E0,3.483787179E-2,-5.079269409E-3,-1.751595177E-2
4.914683698E0,3.983348608E-2,-1.456260681E-3,-1.962617971E-2
4.919737292E0,3.290173411E-2,-2.384185791E-4,-3.001584858E-2
4.924790886E0,1.543486118E-2,2.159118652E-3,-2.010842413E-2
4.929844480E0,2.532532811E-2,2.115249634E-2,-1.375085860E-2
4.934898073E0,3.274416924E-2,2.336883545E-2,-4.037364386E-3
4.939951667E0,3.064998984E-2,6.370544434E-4,3.342051990E-3
4.945005261E0,3.677693009E-2,-6.474494934E-3,-3.585970029E-3
4.950058855E0,2.868345380E-2,1.907348633E-3,-5.706901662E-3
4.955112448E0,3.251314163E-2,-1.945877075E-2,1.533050090E-3
4.960166042E0,3.392150998E-2,-1.473426819E-3,1.947620511E-2
4.965219636E0,4.123839736E-2,2.111053467E-2,1.354136318E-2
4.970273230E0,4.018485546E-2,-4.148483276E-4,1.720611006E-3
4.975326823E0,2.725437284E-2,5.539894104E-3,1.734272949E-2
4.980380417E0,2.878224850E-2,1.263523102E-2,1.373984851E-2
4.985434011E0,4.204711318E-2,6.610870361E-3,1.611695811E-2
4.990487605E0,4.803368449E-2,-1.242256165E-2,1.725640334E-2
4.995541198E0,5.281352997E-2,4.314422607E-3,2.083559707E-2
5.000594792E0,5.642694235E-2,5.483627319E-3,2.796078287E-2
5.005648438E0,5.526211858E-2,5.455017090E-3,3.496395797E-2
5.010702032E0,3.735166788E-2,-7.637023926E-3,4.083184153E-2
5.015755625E0,3.275421262E-2,-1.111888885E-2,3.703056276E-2
5.020809219E0,2.811941504E-2,3.233909607E-3,4.154128954E-2
5.025862813E0,2.478593588E-2,1.628017426E-2,3.062891215E-2
5.030916407E0,3.329038620E-2,2.209472656E-2,4.464793205E-2
5.035970000E0,2.267032862E-2,1.717472076E-2,4.202079028E-2
5.041023594E0,2.521175146E-2,5.172729492E-3,3.350775689E-2
5.046077188E0,4.319426417E-2,-4.354476929E-3,5.708641559E-2
5.051130782E0,5.156052113E-2,2.819061279E-3,6.025860459E-2
5.056184375E0,4.794093966E-2,-1.938819885E-3,5.511157215E-2
5.061237969E0,4.681643844E-2,-1.907348633E-3,5.705263466E-2
5.066291563E0,3.377008438E-2,-8.999824524E-3,5.675571412E-2
5.071345157E0,4.807466269E-2,-1.959609985E-2,4.331055284E-2
5.076398750E0,4.092288017E-2,-7.548332214E-3,4.774083570E-2
5.081452344E0,5.282396078E-2,-5.098342896E-3,5.207156017E-2
5.086505990E0,4.430937767E-2,3.262519836E-3,5.638398975E-2
5.091559532E0,3.592628241E-2,6.806373596E-3,3.690334409E-2
5.096613178E0,5.019780993E-2,-1.547813416E-3,2.954386175E-2
5.101666771E0,5.249470472E-2,3.227233887E-3,3.760310635E-2
5.106720365E0,5.242860317E-2,-3.490447998E-4,3.256763145E-2
5.111773959E0,5.111548305E-2,-3.337860107E-4,4.296122864E-2
5.116827553E0,3.550794721E-2,8.640289307E-4,4.376896098E-2
5.121881146E0,3.558337688E-2,-3.878593445E-3,4.227676988E-2
5.126934740E0,3.317821026E-2,-3.837585449E-3,2.300283685E-2
5.131988334E0,4.741206765E-2,1.757240295E-2,3.102476895E-2
5.137041928E0,5.324813724E-2,9.126663208E-3,2.123530768E-2
5.142095521E0,2.802032232E-2,1.024246216E-2,2.344354242E-2
5.147149115E0,3.759431839E-2,-1.701354980E-3,1.732439175E-2
5.152202709E0,5.167037249E-2,-5.244255066E-3,7.618312724E-3
5.157256303E0,6.206798553E-2,-1.113224030E-2,7.595593110E-3
5.162309896E0,5.945724249E-2,-6.281852722E-3,8.701223880E-3
5.167363490E0,5.085718632E-2,4.462242126E-3,1.784460619E-4
5.172417084E0,5.181035399E-2,-3.156661987E-4,-4.545171745E-3
5.177470678E0,4.210206866E-2,-5.054473877E-3,2.598055173E-3
5.182524323E0,5.140733719E-2,6.864547729E-3,-5.795056466E-3
5.187577865E0,3.919216990E-2,4.436492920E-3,-3.404842922E-3
5.192631511E0,4.254105687E-2,-1.532554626E-3,-1.286308654E-2
5.197685105E0,4.581660032E-2,-1.517295837E-3,-1.158804260E-2
5.202738698E0,4.201802611E-2,-2.167987823E-2,-1.269830205E-2
5.207792292E0,5.610263348E-2,-1.555728912E-2,-1.973098330E-2
5.212845886E0,4.987448454E-2,-1.177787781E-3,-8.887520991E-3
5.217899480E0,2.228546143E-2,-4.724502563E-3,-1.001765206E-2
5.222953073E0,3.046298027E-2,6.580352783E-5,-1.340874285E-2
5.228006667E0,4.338115454E-2,2.262306213E-2,-2.392269112E-2
5.233060261E0,6.445580721E-2,8.193016052E-3,-2.727301419E-2
5.238113855E0,3.907406330E-2,1.406288147E-2,-4.235870391E-2
5.243167448E0,3.285166621E-2,-6.234169006E-3,-3.490093350E-2
5.248221042E0,3.267690539E-2,3.317832947E-3,-3.811282292E-2
5.253274636E0,2.538117766E-2,-7.389068604E-3,-1.884995401E-2
5.258328230E0,3.473511338E-2,-8.512496948E-3,-1.388714090E-2
5.263381823E0,3.923252225E-2,3.431320190E-3,-1.961962506E-2
5.268435469E0,3.772681952E-2,-1.345634460E-3,-3.489325941E-2
5.273489063E0,3.150057793E-2,5.789756775E-3,-1.908545569E-2
5.278542657E0,3.836879134E-2,1.405048370E-2,-2.480487712E-2
5.283596250E0,3.336957097E-2,4.439353943E-3,-2.691437304E-2
5.288649844E0,2.716442943E-2,-9.841918945E-3,-3.012035042E-2
5.293703438E0,2.575933933E-2,-8.572578430E-3,-2.264671773E-2
5.298757032E0,3.380200267E-2,-1.206493378E-2,-3.300965577E-2
5.303810625E0,2.750250697E-2,-4.843711853E-3,-2.068698779E-2
5.308864219E0,3.186360002E-2,-1.430606842E-2,-1.210437622E-2
5.313917813E0,2.798458934E-2,-7.066726685E-3,2.373889089E-3
5.318971407E0,1.697021723E-2,-5.825042725E-3,-1.404322963E-2
5.324025000E0,3.815898299E-2,1.583099365E-4,5.216684192E-3
5.329078594E0,2.115455270E-2,1.321315765E-2,-3.108647652E-3
5.334132188E0,2.435120940E-2,-2.334594727E-3,6.542829797E-4
5.339185782E0,1.210433245E-2,-1.063060760E-2,-1.942815073E-2
5.344239375E0,2.150836587E-2,-1.045227051E-3,-9.624106809E-3
5.349292969E0,3.185465932E-2,-1.042366028E-3,-2.236232162E-2
5.354346563E0,3.972545266E-2,-9.348869324E-3,-6.549989805E-3
5.359400157E0,1.319637895E-2,-2.151489258E-3,1.273510326E-2
5.364453803E0,2.481421828E-2,-1.638412476E-2,2.936382033E-2
5.369507396E0,3.992652893E-2,-2.099895477E-2,1.621096395E-2
5.374560990E0,2.517572045E-2,-1.014709473E-2,2.217447385E-2
5.379614584E0,3.080371022E-2,6.554603577E-3,1.617062837E-2
5.384668178E0,2.559527755E-2,1.480293274E-2,1.149412151E-2
5.389721771E0,3.239169717E-2,-7.562637329E-4,1.042036898E-2
5.394775365E0,3.662124276E-2,-7.581710815E-4,1.413052622E-2
5.399828959E0,3.014704585E-2,8.737564087E-3,3.321300820E-2
5.404882553E0,3.568825126E-2,1.536369324E-3,3.190981597E-2
5.409936146E0,1.738131046E-2,-6.792068481E-3,4.725214839E-2
5.414989740E0,3.712254763E-2,2.752304077E-3,4.099342600E-2
5.420043334E0,4.011037946E-2,3.461837769E-4,3.728504479E-2
5.425096928E0,3.595092893E-2,-3.226280212E-3,3.946578875E-2
5.430150521E0,2.347126603E-2,-5.583763123E-3,3.567735106E-2
5.435204115E0,1.106542349E-2,-3.174781799E-3,3.663751483E-2
5.440257709E0,2.375188470E-2,-5.532264709E-3,3.891488910E-2
5.445311303E0,1.374804974E-2,-7.869720459E-3,3.395857662E-2
5.450364948E0,1.811775565E-2,1.117897034E-2,3.501170129E-2
5.455418542E0,2.718427777E-2,9.889602661E-3,4.314672947E-2
5.460472136E0,1.001423597E-2,1.487731934E-3,4.170124233E-2
5.465525730E0,1.913323998E-2,7.400512695E-3,3.898947686E-2
5.470579323E0,4.234546423E-2,-5.730628967E-3,4.587302357E-2
5.475632917E0,2.631178498E-2,9.739875793E-3,4.912385345E-2
5.480686511E0,2.222198248E-2,1.083564758E-2,4.755192250E-2
5.485740105E0,2.414706349E-2,-1.063060760E-2,4.609946534E-2
5.490793698E0,2.588966489E-2,1.315116882E-3,2.791957185E-2
5.495847292E0,2.291485667E-2,7.225990295E-3,3.491097316E-2
5.500900886E0,2.349582314E-2,1.308822632E-2,3.584625944E-2
5.505954480E0,2.637037635E-2,2.280235291E-3,4.503986239E-2
5.511008073E0,1.147544384E-2,-1.313209534E-3,3.513292223E-2
5.516061667E0,7.418543100E-3,8.180618286E-3,3.486514091E-2
5.521115261E0,-2.555131912E-3,5.725860596E-3,4.044665396E-2
5.526168855E0,2.782413363E-2,2.099990845E-3,2.456649393E-2
5.531222448E0,3.061729670E-2,5.626678467E-3,1.123818755E-2
5.536276042E0,-3.396928310E-3,-1.559257507E-3,9.981468320E-3
5.541329688E0,1.997280121E-2,8.144378662E-4,9.831048548E-3
5.546383230E0,3.913789988E-3,-1.581192017E-3,1.689848863E-2
5.551436875E0,-2.529919147E-3,4.351615906E-3,8.475067094E-3
5.556490469E0,2.670738101E-2,-7.570266724E-3,1.788256690E-2
5.561544063E0,-7.183581591E-3,-8.708953857E-3,4.644552246E-3
5.566597657E0,1.140880585E-2,-3.414154053E-4,2.230765298E-3
5.571651250E0,6.059497595E-3,2.019882202E-3,-2.507777885E-3
5.576704844E0,5.472749472E-3,9.107589722E-3,-1.091884449E-2
5.581758438E0,-9.353965521E-3,1.893043518E-3,-2.513613366E-2
5.586812032E0,-7.453203201E-3,6.607055664E-3,-5.351201817E-2
5.591865625E0,-1.275119185E-2,8.907318115E-3,-6.854824722E-2
5.596919219E0,-1.663649082E-2,1.831626892E-2,-8.340010047E-2
5.601972813E0,-1.930227876E-2,-8.430480957E-4,-7.425104082E-2
5.607026407E0,-1.266109943E-2,3.892898560E-3,-7.824973762E-2
5.612080000E0,-1.190474629E-2,5.031585693E-3,-4.773137346E-2
5.617133594E0,-2.815008163E-3,-4.523277283E-3,-3.170649707E-2
5.622187188E0,-1.043507457E-2,2.619743347E-3,-1.559905708E-3
5.627240782E0,-1.683485508E-2,8.517265320E-3,6.908096373E-3
5.632294428E0,-4.188060760E-3,-2.253532410E-3,-1.495503820E-3
5.637348021E0,-3.487169743E-3,2.497673035E-3,-1.795659214E-2
5.642401615E0,-1.939615607E-2,3.646850586E-3,-4.974083602E-2
5.647455209E0,-1.623982191E-2,4.786491394E-3,-5.633259937E-2
5.652508803E0,-1.067513227E-2,2.356529236E-3,-4.488085210E-2
5.657562396E0,-1.469889283E-2,-3.616333008E-3,-5.143560097E-2
5.662615990E0,-8.677244186E-4,-2.140998840E-2,-3.523334488E-2
5.667669584E0,-8.428454399E-3,-1.887035370E-2,4.531394690E-3
5.672723178E0,1.743704081E-3,-9.250640869E-4,3.081758320E-2
5.677776771E0,3.491431475E-3,-9.247779846E-3,4.496812820E-2
5.682830365E0,-7.712304592E-3,1.499176025E-3,5.063164607E-2
5.687883959E0,7.156759501E-3,2.813339233E-4,3.126030788E-2
5.692937553E0,1.359236240E-2,3.820419312E-3,1.089449320E-2
5.697991146E0,2.835947275E-2,3.771781921E-3,5.050084554E-3
5.703044740E0,3.705301881E-2,9.658813477E-3,1.611994579E-3
5.708098334E0,4.801821709E-2,7.186889648E-3,1.843869500E-2
5.713151928E0,4.224270582E-2,-4.763603210E-3,4.113755748E-2
5.718205573E0,2.943822742E-2,7.629394531E-6,4.566007480E-2
5.723259167E0,2.022609115E-2,5.922317505E-3,5.729668215E-2
5.728312761E0,1.451581717E-2,1.101493835E-3,6.277992576E-2
5.733366355E0,6.630212069E-3,-3.675460815E-3,6.109593064E-2
5.738419948E0,-3.639459610E-3,4.642486572E-3,1.672019809E-2
5.743473542E0,2.647650242E-2,-3.728866577E-3,-2.449308522E-3
5.748527136E0,2.983599901E-3,-1.583099365E-4,-2.010243945E-2
5.753580730E0,-1.900544763E-2,1.406860352E-2,-1.977210119E-2
5.758634323E0,-1.015904546E-2,1.274204254E-2,-1.345133036E-2
5.763687917E0,-4.798173904E-5,1.380157471E-2,1.532623917E-2
5.768741511E0,-2.443122864E-2,4.171371460E-3,3.666635603E-2
5.773795105E0,-1.897978783E-2,1.361465454E-2,3.638521954E-2
5.778848698E0,-2.197426558E-2,6.355285645E-3,2.664275840E-2
5.783902292E0,-3.199055791E-2,3.461837769E-4,2.294710651E-2
5.788955886E0,-4.676237702E-2,-3.240585327E-3,-5.737966858E-3
5.794009480E0,-4.118549824E-2,-1.035976410E-2,-1.505421661E-2
5.799063125E0,-4.393443465E-2,3.910064697E-4,-2.415535040E-2
5.804116719E0,-4.064941406E-2,-7.940292358E-3,-8.342864923E-3
5.809170313E0,-3.635600209E-2,1.346969604E-2,1.094400696E-2
5.814223907E0,-2.374339104E-2,6.213188171E-3,3.012934700E-2
5.819277500E0,-3.254267573E-2,-5.729675293E-3,4.906315356E-2
5.824331094E0,-1.869907975E-2,-9.546279907E-4,5.712569132E-2
5.829384688E0,-9.825170040E-3,-2.155303955E-3,4.244735464E-2
5.834438282E0,-3.662219644E-2,-9.717941284E-4,3.381025791E-2
5.839491875E0,-2.762913704E-2,8.508682251E-3,2.644777298E-2
5.844545469E0,-2.696001530E-2,2.147388458E-2,1.450511068E-2
5.849599063E0,-5.595809221E-2,1.296424866E-2,9.765806608E-3
5.854652657E0,-3.739798069E-2,4.522323608E-3,1.812250912E-2
5.859706250E0,-2.712062001E-2,8.024215698E-3,4.307790101E-2
5.864759844E0,-3.828105330E-2,8.163452148E-4,4.636548087E-2
5.869813438E0,-4.711043835E-2,3.159523010E-3,4.845199734E-2
5.874867032E0,-4.277822375E-2,-6.386756897E-3,5.878740549E-2
5.879920625E0,-3.604748845E-2,-6.355285645E-3,4.518929869E-2
5.884974219E0,-4.253655672E-2,-2.766609192E-3,3.894928098E-2
5.890027865E0,-5.127012730E-2,7.918357849E-3,1.253689360E-2
5.895081459E0,-4.445347190E-2,6.643295288E-3,3.037149087E-3
5.900135053E0,-4.828655720E-2,1.250553131E-2,5.411228631E-3
5.905188646E0,-6.517571211E-2,1.356983185E-2,9.088768624E-3
5.910242240E0,-6.411817670E-2,7.502555847E-3,1.980014890E-2
5.915295834E0,-2.747225761E-2,2.975463867E-4,4.226018488E-2
5.920349428E0,-4.094338417E-2,6.212234497E-3,4.430697486E-2
5.925403021E0,-4.721021652E-2,-8.103370667E-3,3.906721249E-2
5.930456615E0,-5.102035403E-2,-4.491806030E-3,2.686588466E-2
5.935510209E0,-4.651948810E-2,1.461029053E-3,9.914151393E-3
5.940563803E0,-4.683461785E-2,7.364273071E-3,8.593611419E-3
5.945617396E0,-4.236859083E-2,1.321983337E-2,2.626987640E-3
5.950670990E0,-4.629462957E-2,-3.529548645E-3,1.334382594E-2
5.955724584E0,-5.135995150E-2,-1.145362854E-3,2.996725030E-2
5.960778178E0,-5.757012963E-2,-1.155853271E-3,4.508349299E-2
5.965831771E0,-4.003241658E-2,1.206398010E-3,5.772988871E-2
5.970885417E0,-4.756957293E-2,-8.320808411E-3,5.114363879E-2
5.975939011E0,-5.379617214E-2,-1.301860809E-2,2.569263801E-2
5.980992605E0,-4.928725958E-2,-1.767730713E-2,9.951580316E-3
5.986046198E0,-4.831653833E-2,-9.238243103E-3,-7.958898321E-3
5.991099792E0,-4.376250505E-2,-1.511383057E-2,-2.690467611E-2
5.996153386E0,-4.178696871E-2,2.798080444E-3,-2.917945199E-2
6.001206980E0,-5.749782920E-2,-1.148796082E-2,-2.408713475E-2
6.006260573E0,-5.294302106E-2,-1.853466034E-2,3.519663587E-3
6.011314167E0,-4.486474395E-2,1.246452332E-2,2.313753590E-3
6.016367761E0,-3.793510795E-2,2.849578857E-3,1.303443871E-2
6.021421355E0,-4.896008968E-2,-1.025104523E-2,2.827915549E-2
6.026474948E0,-3.736898303E-2,-2.561664581E-2,1.613869146E-2
6.031528542E0,-4.958567023E-2,-5.240440369E-3,1.646258403E-3
6.036582136E0,-4.982984066E-2,-2.840042114E-3,1.643437194E-3
6.041635730E0,-4.894545674E-2,-4.625320435E-4,-1.015320327E-2
6.046689323E0,-5.975756049E-2,1.139736176E-2,-2.783354931E-2
6.051742969E0,-6.468045712E-2,1.246929169E-2,-1.792643778E-2
6.056796563E0,-5.654987693E-2,4.035949707E-3,-2.354939282E-2
6.061850157E0,-6.025186181E-2,4.234313965E-4,-1.376959868E-2
6.066903750E0,-5.451717973E-2,2.777099609E-3,-3.952336963E-3
6.071957344E0,-5.706417561E-2,3.922462463E-3,-5.006876774E-3
6.077010938E0,-6.318140030E-2,-7.999420166E-3,-1.560808625E-2
6.082064532E0,-8.703872561E-2,-1.151180267E-2,-1.420482248E-2
6.087118125E0,-9.398737550E-2,-6.682395935E-3,-1.746993698E-2
6.092171719E0,-8.547630906E-2,-1.020431519E-2,-2.544266358E-2
6.097225313E0,-1.079455316E-1,1.734733582E-3,-1.799264178E-2
6.102278907E0,-1.016319096E-1,1.357650757E-2,-2.722290903E-2
6.107332500E0,-1.072718501E-1,3.951072693E-3,-2.797595225E-2
6.112386094E0,-1.020751595E-1,-1.627445221E-2,-1.454042830E-2
6.117439688E0,-1.147884429E-1,4.027366638E-3,-2.447252162E-3
6.122493282E0,-1.119488180E-1,-7.667541504E-4,3.642547876E-3
6.127546875E0,-1.186445057E-1,-7.896423340E-3,-4.670447670E-3
6.132600469E0,-1.204605699E-1,6.402015686E-3,-1.992817782E-2
6.137654063E0,-1.068142653E-1,6.337165833E-3,-2.903679572E-2
6.142707709E0,-1.098401546E-1,9.835243225E-3,-2.160219848E-2
6.147761303E0,-9.987387061E-2,8.555412292E-3,-2.255377173E-2
6.152814896E0,-1.065492034E-1,7.286071777E-3,-1.506474242E-2
6.157868490E0,-1.190890670E-1,-9.404182434E-3,6.574398838E-3
6.162922084E0,-1.232451499E-1,-1.052379608E-2,2.083511837E-2
6.167975678E0,-1.344891787E-1,-3.324508667E-3,2.428033017E-2
6.173029271E0,-1.372995973E-1,-1.399230957E-2,1.947555132E-2
6.178082865E0,-1.293576062E-1,-1.032352448E-2,9.887720458E-3
6.183136459E0,-1.380403340E-1,-7.476806641E-4,-1.962808892E-3
6.188190053E0,-1.453576386E-1,2.815246582E-3,-7.336996496E-4
6.193243646E0,-1.514571607E-1,9.907722473E-3,-8.876104839E-3
6.198297240E0,-1.646585464E-1,1.456737518E-2,-3.877275623E-3
6.203350834E0,-1.681171358E-1,3.759384155E-3,-3.653692082E-3
6.208404428E0,-1.704203784E-1,-8.145332336E-3,8.439211175E-3
6.213458021E0,-1.690826416E-1,-2.232551575E-2,2.384038270E-2
6.218511615E0,-1.571027339E-1,-1.383304596E-2,2.381963283E-2
6.223565261E0,-1.546285152E-1,-6.599426270E-4,1.529374067E-2
6.228618855E0,-1.534375846E-1,-5.405426025E-3,2.252720110E-2
6.233672448E0,-1.687394381E-1,-8.920669556E-3,1.652064733E-2
6.238726042E0,-1.625011265E-1,7.775306702E-3,2.725929022E-2
6.243779636E0,-1.611538529E-1,1.127243042E-2,1.532560028E-2
6.248833230E0,-1.596816182E-1,8.807182312E-3,1.528465562E-2
6.253886823E0,-1.736234426E-1,4.281997681E-4,1.403037552E-2
6.258940417E0,-1.507253051E-1,2.802848816E-3,2.588520572E-2
6.263994011E0,-1.541033685E-1,-2.214622498E-2,4.003145546E-2
6.269047605E0,-1.503004730E-1,-5.893707275E-4,3.507899866E-2
6.274101198E0,-1.607439220E-1,-1.482295990E-2,4.202388972E-2
6.279154792E0,-1.484551430E-1,-8.755683899E-3,3.108919784E-2
6.284208386E0,-1.683047712E-1,4.382133484E-3,3.446400911E-2
6.289261980E0,-1.666367054E-1,4.354476929E-3,1.526908576E-2
6.294315573E0,-1.530815363E-1,7.888793945E-3,1.402463205E-2
6.299369167E0,-1.479186118E-1,1.376914978E-2,6.962523796E-3
6.304422813E0,-1.414602995E-1,1.798629761E-3,1.307713706E-2
6.309476355E0,-1.493914723E-1,-5.779266357E-4,2.372218482E-2
6.314530000E0,-1.430268586E-1,-7.683753967E-3,2.960734069E-2
6.319583594E0,-1.223039627E-1,-2.854347229E-3,3.425590694E-2
6.324637188E0,-1.385228336E-1,4.309654236E-3,3.769477829E-2
6.329690782E0,-1.274248958E-1,7.849693298E-3,3.383225575E-2
6.334744375E0,-1.185968816E-1,5.431175232E-3,2.761266008E-2
6.339797969E0,-1.205260456E-1,1.965141296E-2,8.401739411E-3
6.344851563E0,-1.011323631E-1,7.636070251E-3,1.441615261E-2
6.349905157E0,-1.031465232E-1,7.596015930E-3,9.605017491E-3
6.354958750E0,-9.455099702E-2,-3.129959106E-3,8.408830501E-3
6.360012344E0,-8.592119813E-2,-9.016036987E-3,1.551751420E-2
6.365065938E0,-8.220234513E-2,-1.797676086E-3,3.587898333E-3
6.370119532E0,-7.719132304E-2,-1.243972778E-2,1.665752754E-2
6.375173125E0,-6.875160336E-2,5.493164062E-3,1.770212501E-2
6.380226719E0,-7.100525498E-2,6.657600403E-3,1.996791922E-2
6.385280313E0,-5.535849929E-2,1.137924194E-2,8.041802794E-4
6.390333907E0,-4.938414693E-2,1.813888550E-3,8.569648489E-4
6.395387553E0,-5.774977803E-2,1.488113403E-2,2.184581943E-3
6.400441146E0,-5.053803325E-2,1.727104187E-3,-6.012143567E-3
6.405494740E0,-3.862300515E-2,-1.487827301E-2,3.499645740E-3
6.410548334E0,-2.921169996E-2,3.080368042E-3,9.509229101E-3
6.415601928E0,-2.458173037E-2,6.642341614E-3,5.985172465E-3
6.420655521E0,-3.313896060E-2,8.988380432E-3,3.558640834E-3
6.425709115E0,-2.010628581E-2,3.008842468E-3,9.596347809E-6
6.430762709E0,-1.185485721E-2,1.830101013E-3,-1.540873200E-2
6.435816303E0,9.097754955E-4,-5.302429199E-4,-1.639582217E-2
6.440869896E0,-1.788377762E-3,2.087211609E-2,-2.216836438E-2
6.445923490E0,7.391661406E-3,6.484031677E-3,-2.787873894E-2
6.450977084E0,1.774281263E-2,-1.253128052E-2,-3.230906278E-2
6.456030678E0,1.732391119E-2,-5.272865295E-3,-1.408537850E-2
6.461084271E0,1.094293594E-2,7.371902466E-4,-9.148095734E-3
6.466137917E0,1.188877225E-2,-1.347637177E-2,-8.951605298E-3
6.471191511E0,6.755292416E-3,9.136199951E-4,-1.698617823E-3
6.476245105E0,-7.741212845E-3,1.756000519E-2,-3.501130268E-4
6.481298698E0,-2.072840929E-3,5.575180054E-3,9.098751470E-4
6.486352292E0,-1.185336709E-2,7.934570312E-3,3.377247602E-3
6.491405886E0,-1.316720247E-2,7.810592651E-4,5.824064370E-3
6.496459480E0,-9.767264128E-3,-2.754211426E-3,3.533559851E-3
6.501513073E0,-6.365418434E-3,-2.696990967E-3,1.368056983E-3
6.506566667E0,-1.358479261E-2,9.260177612E-4,6.177731790E-3
6.511620261E0,-2.322399616E-2,1.282215118E-2,1.343863457E-2
6.516673855E0,-2.328637242E-2,8.792877197E-4,2.303109318E-2
6.521727448E0,-1.030552387E-2,-1.096534729E-2,2.782670408E-2
6.526781042E0,-2.228578925E-2,-6.088256836E-3,3.131964058E-2
6.531834636E0,-3.293374181E-2,3.497123718E-3,2.758482471E-2
6.536888230E0,-3.766342998E-2,-5.722045898E-5,3.221866488E-2
6.541941823E0,-2.556833625E-2,-4.764556885E-3,1.786836237E-2
6.546995417E0,-2.431815863E-2,-2.312660217E-3,3.927842900E-2
6.552049011E0,-3.841963410E-2,-4.624366760E-3,4.150291160E-2
6.557102605E0,-5.250948668E-2,-1.048374176E-2,5.198583752E-2
6.562156250E0,-5.339384079E-2,-6.794929504E-3,6.952069700E-2
6.567209844E0,-5.895864964E-2,-4.321098328E-3,6.902827322E-2
6.572263438E0,-7.045781612E-2,-1.492786407E-2,6.617978215E-2
6.577317032E0,-7.111704350E-2,3.046035767E-3,5.504667386E-2
6.582370625E0,-5.633869767E-2,-1.592922211E-2,5.707637966E-2
6.587424219E0,-6.425321102E-2,-3.204345703E-4,4.714631289E-2
6.592477813E0,-6.609070301E-2,-2.717971802E-4,5.746354908E-2
6.597531407E0,-7.498991489E-2,-2.222061157E-4,4.641825706E-2
6.602585000E0,-8.261287212E-2,-2.545356750E-3,5.436922237E-2
6.607638594E0,-8.067566156E-2,1.533126831E-2,6.340958178E-2
6.612692188E0,-7.870918512E-2,1.169300079E-2,6.520679593E-2
6.617745782E0,-7.794621587E-2,8.087158203E-3,4.918233678E-2
6.622799375E0,-7.831606269E-2,3.325462341E-3,4.271055758E-2
6.627852969E0,-1.072482765E-1,-1.564407349E-2,2.804553881E-2
6.632906615E0,-8.603695035E-2,-4.776000977E-3,3.010727093E-2
6.637960209E0,-9.337115288E-2,-4.677772522E-3,2.509237640E-2
6.643013803E0,-9.129893780E-2,-1.024246216E-3,2.721211500E-2
6.648067396E0,-7.483267784E-2,-1.045227051E-2,1.865831576E-2
6.653120990E0,-9.752589464E-2,9.881019592E-3,1.965666190E-2
6.658174584E0,-8.578631282E-2,1.548767090E-3,2.541202493E-2
6.663228178E0,-8.113086224E-2,-7.895469666E-3,1.201657951E-2
6.668281771E0,-8.489942551E-2,4.103660583E-3,2.370798588E-2
6.673335365E0,-7.673555613E-2,-1.801490784E-3,2.108990587E-2
6.678388959E0,-8.866879344E-2,1.727771759E-2,7.737601642E-3
6.683442553E0,-8.274173737E-2,7.707595825E-3,-7.836041972E-3
6.688496146E0,-6.736749411E-2,1.127433777E-2,-2.088994905E-2
6.693549740E0,-6.020402908E-2,2.951622009E-3,-2.432791144E-2
6.698603334E0,-7.232034206E-2,6.558418274E-3,-2.892297134E-2
6.703656928E0,-7.244980335E-2,-1.004314423E-2,-1.915920898E-2
6.708710521E0,-8.196890354E-2,-3.947257996E-3,-1.548646670E-2
6.713764115E0,-8.424100280E-2,-5.023002625E-3,-2.720197663E-2
6.718817761E0,-8.302354813E-2,4.591941833E-3,-2.833147161E-2
6.723871355E0,-6.990021467E-2,9.380340576E-3,-3.284771740E-2
6.728924948E0,-8.297160268E-2,9.381294250E-3,-4.084216058E-2
6.733978542E0,-7.339477539E-2,9.381294250E-3,-3.932011873E-2
6.739032136E0,-7.207122445E-2,-1.294136047E-3,-5.683075637E-2
6.744085730E0,-7.433497906E-2,3.551483154E-3,-4.563141614E-2
6.749139323E0,-6.586599350E-2,-2.326011658E-3,-4.758390039E-2
6.754192917E0,-6.579229236E-2,8.464813232E-3,-3.884806111E-2
6.759246511E0,-5.734923482E-2,1.362800598E-3,-4.554202408E-2
6.764300105E0,-5.722552538E-2,3.820419312E-3,-4.972757399E-2
6.769353698E0,-4.766675830E-2,6.253242493E-3,-5.276959389E-2
6.774407292E0,-4.537069798E-2,-2.101135254E-2,-4.385142028E-2
6.779460886E0,-5.843496323E-2,-5.309104919E-3,-3.389966860E-2
6.784514480E0,-4.991722107E-2,1.957893372E-3,-2.882303670E-2
6.789568073E0,-2.016359568E-2,3.226280212E-3,-3.089817613E-2
6.794621719E0,-2.149155736E-2,-2.636909485E-3,-3.639841452E-2
6.799675313E0,-3.104242682E-2,1.049995422E-3,-2.882523648E-2
6.804728907E0,-4.176127911E-2,4.702568054E-3,-2.481514588E-2
6.809782500E0,-3.342783451E-2,1.202583313E-3,-4.280661233E-3
6.814836094E0,-2.982148528E-2,-4.637718201E-3,-1.717196405E-2
6.819889688E0,-2.747753263E-2,9.749412537E-3,-2.872338891E-2
6.824943282E0,-2.148625255E-2,7.402420044E-3,-1.774061844E-2
6.829996875E0,-2.277317643E-2,2.050209045E-2,-1.620907336E-2
6.835050469E0,-1.802331209E-2,1.331996918E-2,-2.546390146E-2
6.840104063E0,-1.685899496E-2,1.687908173E-2,-1.673341170E-2
6.845157657E0,-1.687628031E-2,-8.077621460E-3,-9.698681533E-4
6.850211250E0,-2.290451527E-2,-3.153800964E-3,-7.997945882E-3
6.855264844E0,-2.515512705E-2,2.925872803E-3,-6.471040659E-3
6.860318438E0,-1.196998358E-2,-8.852958679E-3,6.805721670E-3
6.865372032E0,-9.593605995E-3,2.022743225E-3,2.003391832E-2
6.870425625E0,7.068276405E-3,1.755714417E-2,1.529886574E-2
6.875479271E0,-2.584815025E-3,6.846427917E-3,3.433280438E-2
6.880532865E0,6.865918636E-3,9.737014771E-4,3.772925586E-2
6.885586459E0,1.393944025E-2,-9.632110596E-5,2.567979693E-2
6.890640053E0,2.576264739E-2,4.782676697E-3,2.096067183E-2
6.895693646E0,2.071714401E-2,2.489089966E-3,3.871272877E-2
6.900747240E0,2.056777477E-2,3.227519989E-2,3.252923116E-2
6.905800834E0,1.921766996E-2,7.204055786E-3,2.047380060E-2
6.910854428E0,3.921580315E-2,-9.348869324E-3,2.751202881E-2
6.915908021E0,2.708697319E-2,1.460170746E-2,3.213258833E-2
6.920961615E0,1.614040136E-2,1.816654205E-2,4.140163958E-2
6.926015209E0,1.739025116E-3,7.459640503E-3,4.577120021E-2
6.931068803E0,-2.955019474E-3,-4.339218140E-3,4.080351815E-2
6.936122396E0,1.765608788E-3,8.881568909E-3,3.577056900E-2
6.941175990E0,4.133224487E-3,-4.119873047E-3,3.440293670E-2
6.946229584E0,2.995312214E-3,-2.762794495E-3,4.358251765E-2
6.951283230E0,-7.750570774E-3,-3.797531128E-3,3.508869186E-2
6.956336823E0,-2.661079168E-2,-1.255035400E-3,3.498108685E-2
6.961390417E0,9.321868420E-3,2.455711365E-3,2.176531404E-2
6.966444011E0,2.121365070E-2,-4.548072815E-3,3.480555490E-2
6.971497605E0,5.779027939E-3,-1.504802704E-2,5.846873671E-2
6.976551198E0,2.141261101E-2,-2.902030945E-3,5.557807535E-2
6.981604792E0,2.008497715E-2,-2.739906311E-3,5.396167189E-2
6.986658386E0,1.885926723E-2,9.880065918E-4,4.170015082E-2
6.991711980E0,2.960503101E-2,1.062488556E-2,4.133684933E-2
6.996765573E0,2.948695421E-2,2.848911285E-2,3.282089159E-2
7.001819167E0,2.815258503E-2,-9.441375732E-5,3.846700117E-2
7.006872761E0,4.582250118E-2,-1.300621033E-2,3.461132571E-2
7.011926355E0,3.967922926E-2,3.080368042E-4,3.320994601E-2
7.016979948E0,4.189658165E-2,1.232624054E-2,4.131418839E-2
7.022033542E0,3.332120180E-2,7.621765137E-3,3.976004571E-2
7.027087136E0,3.913760185E-2,2.960205078E-3,3.478304669E-2
7.032140730E0,4.371845722E-2,9.021759033E-3,2.844971046E-2
7.037194375E0,2.923780680E-2,2.096843719E-2,3.292752057E-2
7.042247969E0,4.455459118E-2,3.993606567E-2,3.275397792E-2
7.047301563E0,4.084134102E-2,2.076625824E-2,2.771356143E-2
7.052355157E0,6.088536978E-2,5.683898926E-4,2.978077903E-2
7.057408750E0,6.778007746E-2,-4.615783691E-4,2.715899795E-2
7.062462344E0,6.974810362E-2,-1.491546631E-3,2.212630957E-2
7.067515938E0,7.172983885E-2,-2.510070801E-3,2.069773152E-2
7.072569532E0,9.393578768E-2,-3.514289856E-3,1.574918069E-2
7.077623125E0,9.095239639E-2,1.566505432E-2,1.081166416E-2
7.082676719E0,9.630352259E-2,9.756088257E-3,5.957882851E-3
7.087730313E0,9.810924530E-2,2.713203430E-3,1.191706490E-2
7.092783907E0,1.021984816E-1,2.421665192E-2,3.534495831E-3
7.097837500E0,1.133912206E-1,5.179405212E-3,1.295794547E-2
7.102891094E0,1.007491350E-1,-6.399154663E-4,1.513133664E-2
7.107944688E0,1.047860384E-1,1.895904541E-3,-7.562574930E-3
7.112998282E0,1.112087369E-1,-3.895759583E-3,-5.156745669E-3
7.118051928E0,1.044748425E-1,5.791664124E-3,-1.458407193E-2
7.123105521E0,1.095618606E-1,9.455680847E-3,-3.831943963E-3
7.128159115E0,1.134798527E-1,2.408981323E-3,-9.781789035E-3
7.133212709E0,1.232401133E-1,1.203823090E-2,-2.161359042E-2
7.138266303E0,1.245943904E-1,2.174377441E-4,-1.904429868E-2
7.143319896E0,1.223911643E-1,7.491111755E-3,-1.407883130E-2
7.148373490E0,1.166903973E-1,-1.378345490E-2,-2.946620807E-2
7.153427084E0,1.252669692E-1,5.479812622E-3,-4.464332387E-2
7.158480678E0,1.266495585E-1,8.420944214E-4,-3.952977806E-2
7.163534271E0,1.208678484E-1,3.362655640E-3,-3.669504449E-2
7.168587865E0,1.067795753E-1,1.111030579E-3,-3.638924286E-2
7.173641459E0,1.189997196E-1,7.194519043E-3,-3.126309067E-2
7.178695053E0,1.119735837E-1,1.321697235E-2,-3.338497132E-2
7.183748646E0,1.156443954E-1,1.918601990E-2,-2.234358341E-2
7.188802292E0,1.289021373E-1,6.120681763E-3,-3.517904505E-2
7.193855886E0,1.301636696E-1,2.046680450E-2,-3.591154516E-2
7.198909480E0,1.279138327E-1,-5.664825439E-3,-2.959400415E-2
7.203963073E0,1.302497387E-1,4.615783691E-4,-1.256889757E-2
7.209016667E0,1.266760826E-1,-5.329132080E-3,-1.108445041E-2
7.214070261E0,1.277744770E-1,7.913589478E-3,9.374583140E-3
7.219123855E0,1.241608858E-1,2.056121826E-3,-8.361359127E-3
7.224177448E0,1.122679114E-1,9.305953979E-3,-8.065848611E-3
7.229231042E0,1.253118515E-1,1.411437988E-2,-3.103030846E-3
7.234284636E0,1.062566042E-1,2.007484436E-2,-1.361451950E-2
7.239338230E0,1.062476039E-1,4.611968994E-3,2.087349072E-3
7.244391823E0,1.075313687E-1,-1.190280914E-2,5.736162886E-3
7.249445417E0,8.138084412E-2,2.575874329E-3,8.210833184E-3
7.254499011E0,7.684576511E-2,1.504898071E-3,5.949821323E-3
7.259552657E0,7.356566191E-2,-1.261234283E-2,7.208445575E-3
7.264606250E0,7.025241852E-2,7.809638977E-3,1.437785849E-2
7.269659792E0,6.579476595E-2,9.068489075E-3,1.798373088E-2
7.274713438E0,6.026285887E-2,1.625823975E-2,1.918845996E-2
7.279767032E0,6.894624233E-2,9.138107300E-3,2.391416579E-2
7.284820625E0,5.975115299E-2,8.012771606E-3,3.453994542E-2
7.289874219E0,5.665880442E-2,1.758670807E-2,3.796375543E-2
7.294927813E0,5.821955204E-2,-8.538246155E-3,4.259246960E-2
7.299981407E0,5.273556709E-2,-8.323669434E-3,3.648283333E-2
7.305035000E0,4.833316803E-2,4.937171936E-3,6.125884876E-2
7.310088594E0,4.883664846E-2,5.038261414E-3,5.843197554E-2
7.315142188E0,5.161935091E-2,7.507324219E-3,4.033474624E-2
7.320195782E0,4.495781660E-2,4.634857178E-4,5.203910917E-2
7.325249375E0,4.548937082E-2,6.539344788E-3,6.467779726E-2
7.330302969E0,4.233425856E-2,-5.251884460E-3,4.169169813E-2
7.335356563E0,3.094130754E-2,1.273727417E-2,4.960895702E-2
7.340410157E0,4.928994179E-2,1.870346069E-2,4.685214534E-2
7.345463803E0,3.315126896E-2,8.007049561E-3,4.766129330E-2
7.350517396E0,3.958052397E-2,-2.607345581E-3,3.881394118E-2
7.355570990E0,2.110320330E-2,-6.006240845E-3,4.801156744E-2
7.360624584E0,2.999198437E-2,-4.633903503E-3,3.331552818E-2
7.365678178E0,1.990395784E-2,1.482009888E-3,3.425157070E-2
7.370731771E0,2.761560678E-2,-1.955986023E-3,2.799695358E-2
7.375785365E0,2.585685253E-2,5.326271057E-3,2.048972808E-2
7.380838959E0,2.525448799E-2,1.860618591E-3,2.274338156E-2
7.385892553E0,3.173416853E-2,-6.326675415E-3,1.421695016E-2
7.390946146E0,2.280348539E-2,1.167583466E-2,1.766468771E-2
7.395999740E0,1.511907578E-2,1.409435272E-2,1.275266148E-2
7.401053334E0,8.700907230E-3,-4.872322083E-3,5.526847206E-3
7.406106928E0,1.661133766E-2,1.074504852E-2,-2.752432134E-3
7.411160521E0,1.018071175E-2,6.052017212E-3,9.143116884E-3
7.416214167E0,-4.535973072E-3,6.144523621E-3,1.502897218E-2
7.421267761E0,-1.553857327E-2,-4.445075989E-3,4.094614182E-3
7.426321355E0,-1.576602459E-2,-7.019042969E-4,1.947820559E-2
7.431374948E0,8.936941624E-3,8.946418762E-3,-9.983377531E-4
7.436428542E0,-1.767039299E-2,-4.835128784E-4,-8.103050292E-3
7.441482136E0,-2.264356613E-2,6.788253784E-3,-1.642404683E-2
7.446535730E0,-2.042257786E-2,1.518917084E-2,-2.704873309E-2
7.451589323E0,7.277131081E-4,6.898880005E-3,-3.513520211E-2
7.456642917E0,8.689343929E-3,1.886177063E-2,-2.778605931E-2
7.461696511E0,1.058882475E-2,1.172828674E-2,-4.431181028E-2
7.466750105E0,2.569633722E-2,2.128410339E-2,-3.684927523E-2
7.471803698E0,6.207525730E-3,1.057910919E-2,-4.364624992E-2
7.476857292E0,1.406294107E-2,1.182460785E-2,-5.389185250E-2
7.481910886E0,1.711976528E-2,1.907348633E-6,-7.713558525E-2
7.486964480E0,2.129280567E-2,8.456230164E-3,-6.812286377E-2
7.492018073E0,1.130688190E-2,-3.331184387E-3,-6.857045740E-2
7.497071719E0,1.443189383E-2,-7.898330688E-3,-5.599122494E-2
7.502125261E0,8.018970490E-3,-1.005554199E-2,-6.018341333E-2
7.507178907E0,4.272460938E-4,-1.514434814E-3,-4.407205805E-2
7.512232500E0,-1.416337490E-2,1.289749146E-2,-4.827293754E-2
7.517286094E0,-3.333532810E-2,9.386062622E-3,-2.160507441E-2
7.522339688E0,-3.347516060E-2,4.708290100E-3,-2.715461701E-2
7.527393282E0,-2.882033587E-2,8.383750916E-3,-1.011052821E-2
7.532446875E0,-3.252881765E-2,-3.404617310E-3,-1.578606293E-2
7.537500469E0,-3.139787912E-2,3.423690796E-4,-8.400628343E-3
7.542554063E0,-2.080988884E-2,5.242347717E-3,-1.883870736E-2
7.547607657E0,-3.519338369E-2,7.731437683E-3,-6.665594876E-3
7.552661250E0,-3.279280663E-2,1.257991791E-2,-4.073071294E-3
7.557714844E0,-2.342569828E-2,9.066581726E-3,-1.676446944E-2
7.562768438E0,-3.652501106E-2,1.865482330E-2,-9.079761803E-4
7.567822032E0,-3.767466545E-2,4.418373108E-3,1.950665563E-2
7.572875678E0,-2.212011814E-2,2.179145813E-3,2.550511435E-2
7.577929271E0,-3.407353163E-2,-7.169723511E-3,2.075602114E-2
7.582982865E0,-4.119431973E-2,1.086139679E-2,2.072767168E-2
7.588036459E0,-4.583615065E-2,7.378578186E-3,2.065623365E-2
7.593090053E0,-3.506773710E-2,8.667945862E-3,1.719267480E-2
7.598143646E0,-2.668774128E-2,1.232910156E-2,1.960638165E-2
7.603197240E0,-4.571050406E-2,-1.850128174E-3,2.207186446E-2
7.608250834E0,-2.660351992E-2,3.082275391E-3,3.158007562E-2
7.613304428E0,-1.826405525E-2,2.046585083E-3,3.629461676E-2
7.618358021E0,-5.276203156E-4,1.015663147E-3,4.333671927E-2
7.623411615E0,-7.882654667E-3,-1.193046570E-3,6.794507802E-2
7.628465209E0,-1.041299105E-2,9.676933289E-3,6.031492352E-2
7.633518803E0,1.262187958E-3,1.807594299E-2,4.449555278E-2
7.638572396E0,-1.316982508E-2,6.233215332E-3,3.235659748E-2
7.643625990E0,-1.567137241E-2,3.982543945E-3,3.220712394E-2
7.648679636E0,-1.813691854E-2,-1.809120178E-3,3.797794133E-2
7.653733230E0,-2.172374725E-2,1.948356628E-3,3.193438053E-2
7.658786823E0,-3.483772278E-2,5.668640137E-3,4.134420305E-2
7.663840417E0,-2.757155895E-2,-1.674842834E-2,4.826251790E-2
7.668894011E0,-2.762430906E-2,-6.937980652E-3,7.418552041E-2
7.673947605E0,-3.469353914E-2,-9.072303772E-3,6.653618813E-2
7.679001198E0,-5.234229565E-2,-6.434440613E-3,7.316026837E-2
7.684054792E0,-2.602785826E-2,-8.575439453E-3,6.300445646E-2
7.689108386E0,-2.244198322E-2,8.297920227E-3,5.662542582E-2
7.694161980E0,-4.723984003E-2,4.863739014E-3,5.018117651E-2
7.699215573E0,-3.866851330E-2,8.573532104E-3,4.978894442E-2
7.704269167E0,-2.191966772E-2,1.564025879E-3,4.700334370E-2
7.709322761E0,-7.548749447E-3,1.361846924E-2,3.481248394E-2
7.714376355E0,-1.119422913E-2,6.380081177E-4,3.568793461E-2
7.719429948E0,-8.768320084E-3,-8.665084839E-3,5.315878242E-2
7.724483594E0,7.746458054E-3,9.400367737E-3,3.492445499E-2
7.729537136E0,-3.133833408E-3,2.019882202E-2,2.153132111E-2
7.734590782E0,1.222234964E-2,1.234054565E-3,2.133521065E-2
7.739644375E0,5.722045898E-5,2.241134644E-4,2.345321700E-2
7.744697969E0,-9.053945541E-5,-3.145217896E-3,1.368546858E-2
7.749751563E0,-1.442164183E-2,5.388259888E-3,1.240051724E-2
7.754805157E0,-9.655296803E-3,1.980781555E-3,1.698752679E-2
7.759858750E0,-1.437997818E-2,-2.069473267E-4,1.564623974E-2
7.764912344E0,-1.195800304E-2,2.136325836E-2,3.727009753E-3
7.769965938E0,-4.913508892E-3,-2.363204956E-3,1.312537119E-2
7.775019532E0,1.066207886E-3,2.614974976E-3,4.662390333E-3
7.780073125E0,3.389537334E-3,-5.510330200E-3,5.811817478E-3
7.785126719E0,-9.814023972E-3,-2.890586853E-3,1.641809940E-2
7.790180313E0,9.203851223E-3,9.002685547E-4,-1.823180914E-2
7.795233907E0,1.261603832E-2,4.659652710E-3,-2.278325893E-2
7.800287500E0,2.309209108E-2,1.194667816E-2,-2.382715419E-2
7.805341146E0,1.698249578E-2,3.753662109E-3,-3.543495759E-2
7.810394740E0,3.328204155E-2,-5.578994751E-3,-2.087836713E-2
7.815448334E0,1.638865471E-2,-1.956272125E-2,-1.714181155E-2
7.820501928E0,1.732128859E-2,-1.088714600E-2,-1.573780924E-2
7.825555521E0,4.001319408E-3,-9.406089783E-3,-2.144186385E-2
7.830609115E0,1.570576429E-2,-8.144378662E-4,-5.833920557E-3
7.835662709E0,8.409917355E-3,4.152297974E-3,-2.352963947E-2
7.840716303E0,1.892060041E-2,1.026058197E-2,-1.980106346E-2
7.845769896E0,1.745772362E-2,5.632400513E-3,-2.675151452E-2
7.850823490E0,3.261095285E-2,6.978034973E-3,-2.894650027E-2
7.855877084E0,1.201075315E-2,-2.371788025E-3,-2.744266391E-2
7.860930678E0,2.720934153E-2,-4.520416260E-3,-2.005428262E-2
7.865984271E0,3.998249769E-2,-9.016990662E-3,-2.460235544E-2
7.871037865E0,3.359568119E-2,-1.611709595E-3,-2.193251811E-2
7.876091511E0,2.123606205E-2,-2.107620239E-4,-2.271987498E-2
7.881145105E0,3.282654285E-2,5.937576294E-3,-2.358306944E-2
7.886198698E0,2.531212568E-2,1.349449158E-3,-1.144158281E-2
7.891252292E0,3.571164608E-2,2.739906311E-3,-8.897852153E-3
7.896305886E0,3.882652521E-2,8.860588074E-3,-1.583750732E-2
7.901359480E0,4.308736324E-2,5.433082581E-3,-6.100276485E-3
7.906413073E0,5.801141262E-2,2.035140991E-3,-1.109972596E-3
7.911466667E0,5.985891819E-2,8.172988892E-3,4.955583252E-3
7.916520261E0,5.677682161E-2,-1.188278198E-3,1.219866052E-2
7.921573855E0,7.514804602E-2,2.193450928E-4,1.209589094E-2
7.926627448E0,9.097683430E-2,1.585769653E-2,-9.855665267E-4
7.931681042E0,1.018350720E-1,1.711273193E-2,5.029466469E-3
7.936734636E0,1.138499975E-1,1.005363464E-2,5.173161160E-3
7.941788230E0,1.173496246E-1,1.610183716E-2,-1.375435106E-2
7.946841875E0,1.160719395E-1,5.481719971E-3,-1.105265878E-2
7.951895417E0,1.207100153E-1,5.630493164E-3,-2.501190454E-2
7.956949063E0,1.015679836E-1,1.646137238E-2,-2.582859620E-2
7.962002657E0,1.075291634E-1,3.462791443E-3,-1.696294174E-3
7.967056250E0,8.733987808E-2,7.057189941E-5,-6.368298084E-3
7.972109844E0,9.098488092E-2,-3.300666809E-3,1.280188188E-2
7.977163438E0,1.112487316E-1,-5.453109741E-3,3.290941939E-3
7.982217032E0,1.004796624E-1,1.377964020E-2,2.203285694E-3
7.987270625E0,1.063591242E-1,2.097702026E-2,-2.476816066E-3
7.992324219E0,1.133465171E-1,8.077621460E-4,-1.420439593E-2
7.997377813E0,1.084650755E-1,4.553794861E-3,-9.239550680E-3
8.002431407E0,1.285378933E-1,9.456634521E-3,-1.021056343E-2
8.007485000E0,1.436046362E-1,2.438545227E-3,-2.773490734E-3
8.012538594E0,1.288236380E-1,-3.339767456E-3,3.446148708E-3
8.017592188E0,1.355028749E-1,1.613616943E-3,8.372409269E-3
8.022645782E0,1.385652423E-1,6.525039673E-3,1.562593691E-2
8.027699428E0,1.534578800E-1,1.851463318E-2,2.030627057E-2
8.032753021E0,1.420354247E-1,6.656646729E-3,2.379845828E-2
8.037806615E0,1.461249590E-1,1.745033264E-2,1.542826276E-2
8.042860209E0,1.216605306E-1,2.035140991E-3,3.209868073E-2
8.047913803E0,9.618270397E-2,4.552841187E-3,3.910051286E-2
8.052967396E0,7.455378771E-2,3.494262695E-3,5.433844030E-2
8.058020990E0,6.598210335E-2,3.615379333E-3,5.885470659E-2
8.063074584E0,3.854888678E-2,1.086425781E-2,5.730164051E-2
8.068128178E0,3.383833170E-2,9.737014771E-3,5.934222415E-2
8.073181771E0,1.734143496E-2,6.249427795E-3,7.796498388E-2
8.078235365E0,1.165062189E-2,1.228809357E-2,6.784790754E-2
8.083288959E0,1.675117016E-2,7.596015930E-3,5.792068690E-2
8.088342553E0,1.234287024E-2,5.322456360E-3,5.634197220E-2
8.093396146E0,1.620525122E-2,3.059387207E-3,5.123322457E-2
8.098449740E0,1.527214050E-2,-1.559257507E-3,3.663885593E-2
8.103503386E0,-1.160502434E-3,-1.683044434E-2,3.406551480E-2
8.108556980E0,2.844572067E-3,8.869171143E-5,4.464829713E-2
8.113610573E0,8.656978607E-4,-8.062362671E-3,4.916380718E-2
8.118664167E0,-9.511768818E-3,1.708126068E-2,5.352558568E-2
8.123717761E0,9.964644909E-3,6.412506104E-3,5.907884613E-2
8.128771355E0,1.497352123E-2,-7.733345032E-3,5.026709288E-2
8.133824948E0,3.776168823E-2,1.029014587E-2,4.283794388E-2
8.138878542E0,3.544658422E-2,-1.219654083E-2,3.416006267E-2
8.143932136E0,3.421723843E-2,-2.453804016E-3,2.547914535E-2
8.148985730E0,4.483872652E-2,-3.479003906E-3,1.461400557E-2
8.154039323E0,4.943639040E-2,2.517700195E-4,2.169978805E-2
8.159092917E0,4.221528769E-2,-6.721496582E-3,1.810314506E-2
8.164146511E0,4.328858852E-2,1.009654999E-2,1.913103461E-2
8.169200105E0,3.368431330E-2,6.589889526E-4,2.488357760E-2
8.174253698E0,3.720283508E-2,-6.324768066E-3,9.193737991E-3
8.179307344E0,5.729585886E-2,-3.756523132E-3,-1.109403372E-2
8.184360938E0,4.159420729E-2,1.162528992E-3,-2.177642472E-2
8.189414532E0,3.909617662E-2,1.197910309E-2,-9.845523164E-3
8.194468125E0,4.135227203E-2,1.083278656E-2,-2.056097426E-2
8.199521719E0,2.566289902E-2,2.155494690E-2,-3.832007945E-2
8.204575313E0,4.105854034E-2,8.455276489E-3,-5.092365295E-2
8.209628907E0,5.282497406E-2,9.714126587E-3,-3.499422222E-2
8.214682500E0,4.190880060E-2,2.164459229E-2,-2.864280529E-2
8.219736094E0,3.571128845E-2,8.536338806E-3,-2.729615383E-2
8.224789688E0,5.100810528E-2,1.572418213E-2,-2.343871072E-2
8.229843282E0,4.598212242E-2,-5.639076233E-3,-3.632897884E-2
8.234896875E0,7.184678316E-2,-1.970100403E-2,-3.241436929E-2
8.239950469E0,6.660199165E-2,-3.974914551E-3,-5.001285672E-2
8.245004063E0,5.662226677E-2,-1.212215424E-2,-4.233563319E-2
8.250057657E0,7.413393259E-2,1.174926758E-3,-5.366421118E-2
8.255111303E0,5.216056108E-2,1.790618896E-2,-4.242853820E-2
8.260164896E0,5.187320709E-2,1.433181763E-2,-4.299454391E-2
8.265218490E0,6.694471836E-2,1.552867889E-2,-1.993029006E-2
8.270272084E0,8.418941498E-2,1.314640045E-2,-7.708678022E-3
8.275325678E0,7.272529602E-2,3.653526306E-3,3.103467636E-3
8.280379271E0,7.802098989E-2,3.741264343E-3,-8.698752150E-3
8.285432865E0,8.088344336E-2,-1.754093170E-2,-1.320363954E-2
8.290486459E0,8.837962151E-2,-1.966190338E-2,-1.527833100E-2
8.295540053E0,9.468662739E-2,4.357337952E-3,-1.501450595E-2
8.300593646E0,1.067410707E-1,-5.076408386E-3,-3.014272451E-2
8.305647240E0,9.378129244E-2,-7.307052612E-3,-3.800118715E-2
8.310700834E0,8.689510822E-2,-1.189041138E-2,-2.672873810E-2
8.315754428E0,8.836060762E-2,1.821517944E-4,-3.224150836E-2
8.320808021E0,8.267647028E-2,6.217002869E-3,-1.621003821E-2
8.325861667E0,7.347846031E-2,1.695156097E-2,-7.598792203E-3
8.330915261E0,4.766285419E-2,8.593559265E-3,1.408272050E-2
8.335968855E0,3.868138790E-2,-3.253936768E-3,7.148260251E-3
8.341022448E0,4.166030884E-2,-9.065628052E-3,2.762103826E-2
8.346076042E0,3.388559818E-2,-5.336761475E-3,3.839338571E-2
8.351129636E0,2.142745256E-2,-4.529953003E-4,5.030668899E-2
8.356183230E0,7.033348083E-4,5.570411682E-3,6.319767982E-2
8.361236823E0,-3.274321556E-3,-3.299713135E-4,8.675996214E-2
8.366290417E0,4.787802696E-3,-6.169319153E-3,9.572103620E-2
8.371344011E0,-9.982705116E-3,-1.435661316E-2,1.129397899E-1
8.376397605E0,-1.502823830E-2,-1.094818115E-3,1.097776368E-1
8.381451198E0,-3.427863121E-3,-8.126258850E-3,1.066662520E-1
8.386504792E0,9.385347366E-4,1.813697815E-2,1.095068306E-1
8.391558386E0,-1.486647129E-2,1.213550568E-2,9.685541689E-2
8.396612032E0,-1.990151405E-2,2.441406250E-4,1.092426777E-1
8.401665625E0,-3.563821316E-2,9.813308716E-3,1.132260114E-1
8.406719219E0,-1.322746277E-2,-8.735656738E-4,1.147116050E-1
8.411772813E0,-3.133368492E-2,-6.722450256E-3,1.209830120E-1
8.416826407E0,-4.924404621E-2,6.477355957E-3,1.176619455E-1
8.421880000E0,-4.578828812E-2,8.867263794E-3,1.059401035E-1
8.426933594E0,-3.635072708E-2,-6.256103516E-4,1.156032458E-1
8.431987188E0,-5.190527439E-2,-1.003742218E-2,1.252643317E-1
8.437040782E0,-3.406214714E-2,3.186225891E-3,1.204945967E-1
8.442094375E0,-2.467691898E-2,1.392555237E-2,1.051807776E-1
8.447147969E0,-3.323650360E-2,-8.667945862E-3,9.705765545E-2
8.452201563E0,-3.338503838E-2,-2.069473267E-4,8.179886639E-2
8.457255209E0,-2.988088131E-2,-6.051063538E-3,7.496170700E-2
8.462308750E0,-1.704490185E-2,9.506225586E-3,7.405191660E-2
8.467362396E0,-8.973598480E-3,-2.358436584E-3,6.371812522E-2
8.472415990E0,-1.174378395E-2,-1.075744629E-3,4.506738856E-2
8.477469584E0,-1.686489582E-2,6.130218506E-3,6.390247960E-3
8.482523178E0,-4.556179047E-4,2.606391907E-3,-1.299993135E-2
8.487576771E0,2.578377724E-3,1.466751099E-3,-3.937555477E-2
8.492630365E0,6.834506989E-3,3.904342651E-3,-3.927935287E-2
8.497683959E0,1.233267784E-2,8.704185486E-3,-5.580456927E-2
8.502737553E0,-4.799723625E-3,-7.810592651E-4,-6.507281214E-2
8.507791146E0,1.140367985E-2,1.473426819E-2,-5.994041264E-2
8.512844740E0,1.322710514E-2,-1.930236816E-3,-6.209690869E-2
8.517898334E0,1.917243004E-3,-3.028869629E-3,-5.936503410E-2
8.522951928E0,1.453340054E-2,1.013374329E-2,-7.924044877E-2
8.528005521E0,1.038026810E-2,1.131248474E-2,-9.421379864E-2
8.533059115E0,2.520990372E-2,6.539344788E-3,-9.128957987E-2
8.538112709E0,3.267264366E-2,5.356788635E-3,-1.263023615E-1
8.543166355E0,1.164388657E-2,3.004074097E-3,-1.502913237E-1
8.548219948E0,-8.248090744E-4,6.612777710E-3,-1.598498821E-1
8.553273542E0,-1.096618176E-2,1.254940033E-2,-1.691099256E-1
8.558327136E0,-2.214968204E-2,-6.484031677E-3,-1.427052468E-1
8.563380730E0,-3.916025162E-2,-1.467609406E-2,-1.319009364E-1
8.568434323E0,-4.543602467E-2,-8.562088013E-3,-1.188442782E-1
8.573487917E0,-4.685091972E-2,7.001876831E-3,-1.213735566E-1
8.578541511E0,-5.540657043E-2,-1.436519623E-2,-1.273929775E-1
8.583595105E0,-5.912744999E-2,-1.062202454E-2,-1.202457547E-1
8.588648698E0,-6.511652470E-2,-9.689331055E-4,-1.333351433E-1
8.593702292E0,-7.589411736E-2,1.334190369E-2,-1.332022399E-1
8.598755886E0,-9.128510952E-2,9.732246399E-3,-1.460464597E-1
8.603809480E0,-9.933507442E-2,2.604484558E-3,-1.254767329E-1
8.608863073E0,-1.086404324E-1,2.643585205E-3,-1.002230644E-1
8.613916719E0,-1.260876656E-1,-3.243446350E-3,-7.639542222E-2
8.618970313E0,-1.386559010E-1,-7.896423340E-3,-3.488978371E-2
8.624023907E0,-1.474682093E-1,-8.939743042E-3,-1.284369454E-2
8.629077500E0,-1.586711407E-1,-5.233764648E-3,1.133094728E-2
8.634131094E0,-1.744840145E-1,-5.117416382E-3,1.997922547E-2
8.639184688E0,-1.972575188E-1,-2.498626709E-4,1.432888024E-2
8.644238282E0,-2.174370289E-1,-1.353263855E-3,1.342219114E-2
8.649291875E0,-2.207540274E-1,2.011394501E-2,5.449073389E-3
8.654345469E0,-2.240586281E-1,1.409816742E-2,1.541699655E-2
8.659399063E0,-2.142474651E-1,1.051044464E-2,3.239090368E-2
8.664452657E0,-2.270122766E-1,-1.084804535E-2,4.921841621E-2
8.669506250E0,-2.218794823E-1,1.070594788E-2,9.075564146E-2
8.674559844E0,-2.096221447E-1,-3.525733948E-3,1.046791226E-1
8.679613438E0,-1.997958422E-1,1.707077026E-4,1.159166619E-1
8.684667032E0,-2.018920183E-1,1.467704773E-3,1.152249724E-1
8.689720678E0,-2.181401253E-1,1.225662231E-2,1.132532433E-1
8.694774271E0,-1.961765289E-1,1.228427887E-2,9.950586408E-2
8.699827865E0,-1.898729801E-1,1.623153687E-3,9.416089207E-2
8.704881459E0,-2.073180676E-1,1.242256165E-2,7.701480389E-2
8.709935053E0,-2.079236507E-1,2.788925171E-2,8.250748366E-2
8.714988646E0,-2.061049938E-1,6.433486938E-3,9.991381317E-2
8.720042240E0,-2.020325661E-1,4.138946533E-3,1.337455511E-1
8.725095834E0,-2.144476175E-1,-5.241394043E-3,1.528095454E-1
8.730149428E0,-2.112969160E-1,-5.043029785E-3,1.682020724E-1
8.735203021E0,-2.212605476E-1,-1.287460327E-3,1.465547979E-1
8.740256615E0,-2.120426893E-1,-7.047653198E-3,1.404531896E-1
8.745310209E0,-2.064777613E-1,-2.077102661E-3,1.369138658E-1
8.750363803E0,-2.104710340E-1,1.471996307E-2,1.095890179E-1
8.755417448E0,-2.001559734E-1,1.832389832E-2,9.074585140E-2
8.760471042E0,-2.017673254E-1,1.478099823E-2,8.868049085E-2
8.765524636E0,-1.819077730E-1,6.528854370E-3,7.720123976E-2
8.770578230E0,-1.609815359E-1,-1.647949219E-3,8.958926797E-2
8.775631823E0,-1.651128531E-1,-1.441955566E-3,7.568668574E-2
8.780685417E0,-1.455436945E-1,-3.621101379E-3,6.660138071E-2
8.785739011E0,-1.367310286E-1,-1.289272308E-2,4.677616805E-2
8.790792605E0,-1.327251196E-1,1.658439636E-3,2.120742388E-2
8.795846198E0,-1.228018999E-1,1.371383667E-2,-6.002761656E-4
8.800899792E0,-1.308130026E-1,2.210330963E-2,-3.053395264E-2
8.805953386E0,-1.149855852E-1,1.024818420E-2,-4.468257725E-2
8.811006980E0,-9.323430061E-2,9.188652039E-3,-4.909444600E-2
8.816060573E0,-8.953070641E-2,-1.364707947E-3,-3.331756964E-2
8.821114167E0,-7.394206524E-2,-2.326965332E-3,-3.549868241E-2
8.826167813E0,-5.609428883E-2,-3.279685974E-3,-4.001888260E-2
8.831221407E0,-4.792189598E-2,-1.253795624E-2,-3.734703362E-2
8.836275000E0,-3.030610085E-2,-3.911018372E-3,-4.415607080E-2
8.841328594E0,-1.878750324E-2,-1.434993744E-2,-5.561930686E-2
8.846382188E0,-2.153456211E-2,2.355575562E-4,-7.654921710E-2
8.851435782E0,-1.593410969E-2,5.206108093E-3,-9.853330255E-2
8.856489375E0,-1.168799400E-2,-1.749992371E-3,-1.165749431E-1
8.861542969E0,9.157061577E-3,6.786346436E-3,-1.167130470E-1
8.866596563E0,3.221726418E-2,3.381729126E-3,-1.025544778E-1
8.871650157E0,4.084038734E-2,3.568649292E-3,-1.050631404E-1
8.876703750E0,4.583048820E-2,-9.946823120E-4,-8.020669222E-2
8.881757344E0,4.006516933E-2,4.110336304E-4,-7.226671278E-2
8.886810938E0,5.930626392E-2,5.372047424E-3,-7.384067774E-2
8.891864584E0,5.469119549E-2,1.986503601E-3,-7.528845221E-2
8.896918178E0,6.184923649E-2,-1.386642456E-3,-6.479910761E-2
8.901971771E0,7.497370243E-2,-3.534317017E-3,-5.804099143E-2
8.907025365E0,6.187295914E-2,1.095676422E-2,-5.239852890E-2
8.912078959E0,6.192421913E-2,1.701641083E-2,-2.665475197E-2
8.917132553E0,7.020914555E-2,-7.257461548E-4,-9.326001629E-3
8.922186146E0,7.840991020E-2,-7.638931274E-3,1.844434813E-2
8.927239740E0,8.430361748E-2,-7.353782654E-3,3.045336343E-2
8.932293334E0,8.768367767E-2,-9.455680847E-3,3.406414017E-2
8.937346928E0,9.815800190E-2,3.299713135E-4,5.891238153E-2
8.942400521E0,8.241438866E-2,1.359272003E-2,4.088462889E-2
8.947454115E0,9.772574902E-2,-7.672309875E-3,3.131107986E-2
8.952507709E0,1.139013767E-1,4.455566406E-3,3.604160249E-2
8.957561303E0,1.133831739E-1,2.005100250E-2,2.773136832E-2
8.962614948E0,1.259273291E-1,1.177215576E-2,3.487350047E-2
8.967668542E0,1.335580349E-1,2.136325836E-2,5.021287873E-2
8.972722136E0,1.412156820E-1,-1.164436340E-3,6.076825783E-2
8.977775730E0,1.296508312E-1,-1.284313202E-2,6.875436008E-2
8.982829323E0,1.181821823E-1,-5.432128906E-3,7.777442038E-2
8.987882917E0,1.352988482E-1,-9.950637817E-3,8.676074445E-2
8.992936511E0,1.462472677E-1,9.870529175E-4,9.909800440E-2
8.997990105E0,1.298470497E-1,2.371120453E-2,7.353607565E-2
9.003043698E0,1.277832985E-1,1.775074005E-2,5.879561976E-2
9.008097292E0,1.317018270E-1,1.159667969E-3,5.721502379E-2
9.013150886E0,1.404112577E-1,2.523422241E-3,6.158111244E-2
9.018204480E0,1.334507465E-1,5.041122437E-3,6.359684467E-2
9.023258073E0,1.395608187E-1,1.596450806E-3,5.600519851E-2
9.028311667E0,1.634860039E-1,7.684707642E-3,6.033624336E-2
9.033365261E0,1.752359867E-1,4.213333130E-3,6.816606224E-2
9.038418907E0,1.737853289E-1,-2.795219421E-3,5.806061998E-2
9.043472500E0,1.723464727E-1,2.122879028E-3,4.688612372E-2
9.048526094E0,1.637068987E-1,1.173973083E-2,4.289524257E-2
9.053579688E0,1.704810858E-1,7.019042969E-3,2.836296335E-2
9.058633282E0,1.679579020E-1,3.557205200E-3,3.175231069E-2
9.063686875E0,1.782728434E-1,3.655433655E-3,2.917990088E-2
9.068740469E0,1.647304296E-1,-1.000404358E-3,3.498728573E-2
9.073794063E0,1.572962999E-1,-8.602142334E-4,3.831009194E-2
9.078847657E0,1.509158611E-1,-9.055137634E-3,3.557791561E-2
9.083901250E0,1.446937323E-1,-5.483627319E-4,4.713772237E-2
9.088954844E0,1.468030214E-1,-1.229858398E-2,3.828743473E-2
9.094008438E0,1.547095776E-1,4.523277283E-3,4.503310099E-2
9.099062032E0,1.412429810E-1,4.594802856E-3,2.551853843E-2
9.104115625E0,1.455746889E-1,5.837440491E-3,-7.321084850E-4
9.109169271E0,1.569775343E-1,2.319335938E-3,-1.270330045E-2
9.114222865E0,1.658960581E-1,1.070022583E-2,2.840657718E-3
9.119276459E0,1.497968435E-1,1.069927216E-2,-3.042615484E-3
9.124330053E0,1.681965590E-1,-7.115364075E-3,7.682014257E-3
9.129383646E0,1.674349308E-1,-5.790710449E-3,1.722227782E-2
9.134437240E0,1.523746252E-1,5.012512207E-3,1.833209582E-2
9.139490834E0,1.492651701E-1,6.222724915E-3,1.588832028E-2
9.144544428E0,1.628009081E-1,9.798049927E-3,1.218759641E-2
9.149598021E0,1.595745087E-1,6.216049194E-3,3.874676768E-3
9.154651615E0,1.550978422E-1,1.466751099E-3,-1.379037555E-2
9.159705209E0,1.460003853E-1,-9.166717529E-3,-8.894703351E-3
9.164758803E0,1.499011517E-1,4.012107849E-3,-4.096306395E-3
9.169812396E0,1.455354691E-1,-4.275321960E-3,7.989559323E-3
9.174866042E0,1.482378244E-1,-1.013183594E-2,1.152215712E-2
9.179919636E0,1.401891708E-1,8.983612061E-3,2.211215720E-2
9.184973230E0,1.332894564E-1,5.373001099E-3,2.431575209E-2
9.190026823E0,1.229310036E-1,-1.838302612E-2,4.990959074E-3
9.195080417E0,1.493679285E-1,5.530357361E-3,-3.427506424E-3
9.200134011E0,1.376432180E-1,4.322052002E-3,-2.189009916E-3
9.205187605E0,1.271431446E-1,1.142501831E-2,-4.546259064E-3
9.210241198E0,1.238080263E-1,2.321243286E-2,-1.761264913E-2
9.215294792E0,1.181267500E-1,1.353454590E-2,-5.598316435E-3
9.220348386E0,1.029508114E-1,-2.003669739E-3,5.164376926E-3
9.225401980E0,1.210944653E-1,-7.921218872E-3,9.933907539E-3
9.230455573E0,1.057735682E-1,-7.863998413E-3,1.572144218E-3
9.235509167E0,1.014293432E-1,-5.411148071E-3,3.897640156E-3
9.240562761E0,1.052653790E-1,-4.187583923E-3,2.515162341E-4
9.245616407E0,9.371280670E-2,4.157066345E-3,-1.749427244E-2
9.250670000E0,8.682429790E-2,2.915382385E-3,-2.335315384E-2
9.255723594E0,7.883620262E-2,1.830577850E-2,-2.435840666E-2
9.260777188E0,7.450604439E-2,-8.525848389E-4,-2.290776186E-2
9.265830782E0,6.408119202E-2,-1.156520844E-2,-7.224322297E-3
9.270884375E0,6.574904919E-2,-6.742477417E-3,-1.239745412E-3
9.275937969E0,4.247450829E-2,-1.026916504E-2,1.532209013E-2
9.280991563E0,2.653133869E-2,-4.266738892E-3,1.040502824E-2
9.286045157E0,2.009737492E-2,-1.969528198E-2,7.974905893E-4
9.291098750E0,1.842033863E-2,-5.769729614E-4,-4.007589072E-3
9.296152344E0,2.512705326E-2,1.601505280E-2,-3.472825140E-2
9.301205938E0,4.414796829E-3,1.598358154E-3,-3.314430267E-2
9.306259584E0,1.959276199E-2,-3.189086914E-3,-3.393446654E-2
9.311313178E0,6.109356880E-3,-1.387786865E-2,-3.126931936E-2
9.316366771E0,-4.932761192E-3,5.193710327E-3,-2.741343714E-2
9.321420365E0,7.873535156E-3,-8.201599121E-4,-1.519535482E-2
9.326473959E0,1.535058022E-3,-3.229141235E-3,-1.265869383E-2
9.331527553E0,7.029771805E-3,-2.065658569E-3,-2.556551248E-2
9.336581146E0,7.820367813E-3,3.846168518E-3,-2.775089443E-2
9.341634740E0,-9.141325951E-3,4.967689514E-3,-2.503622323E-2
9.346688334E0,-1.299417019E-2,-4.614830017E-3,-3.185401112E-2
9.351741928E0,-2.045118809E-2,8.428573608E-3,-5.285203829E-2
9.356795521E0,-1.941621304E-2,1.196861267E-3,-4.040152952E-2
9.361849115E0,-6.729722023E-3,-3.625869751E-3,-3.645632789E-2
9.366902709E0,-1.658332348E-2,1.297473907E-2,-3.003269993E-2
9.371956303E0,-3.233504295E-2,8.064270020E-3,-1.527969446E-2
9.377009896E0,-3.721177578E-2,-6.296157837E-3,-2.449278347E-2
9.382063490E0,-2.306973934E-2,-1.578998566E-2,-2.419022843E-2
9.387117136E0,-3.275668621E-2,3.290176392E-3,-1.431480423E-2
9.392170730E0,-2.935051918E-2,8.373260498E-4,-1.530702226E-2
9.397224323E0,-2.231121063E-3,-3.969192505E-3,-1.979023218E-2
9.402277917E0,-2.877116203E-2,1.947402954E-3,-2.898438089E-2
9.407331511E0,-3.731381893E-2,-7.622718811E-3,-3.448592499E-2
9.412385105E0,-2.084195614E-2,-9.987831116E-3,-2.801497653E-2
9.417438698E0,-3.310227394E-2,7.114410400E-4,-2.397144400E-2
9.422492292E0,-5.226254463E-2,-4.095077515E-3,6.110693328E-3
9.427545886E0,-5.459880829E-2,7.761955261E-3,1.227586903E-2
9.432599480E0,-5.355036259E-2,-6.837844849E-4,2.308859304E-2
9.437653073E0,-5.834031105E-2,5.199432373E-3,3.732371703E-2
9.442706667E0,-6.904101372E-2,-3.214836121E-3,3.013125062E-2
9.447760313E0,-7.610630989E-2,9.809494019E-3,4.199370742E-2
9.452813907E0,-9.259438515E-2,1.797676086E-2,5.489321053E-2
9.457867500E0,-9.232616425E-2,-5.974769592E-3,7.242273539E-2
9.462921094E0,-9.671795368E-2,-2.412796021E-3,6.369234622E-2
9.467974688E0,-9.283876419E-2,-8.386611938E-3,7.160503417E-2
9.473028282E0,-1.009080410E-1,-6.006240845E-3,6.990581751E-2
9.478081875E0,-1.004801989E-1,1.117706299E-3,7.901937515E-2
9.483135469E0,-8.826017380E-2,-2.511978149E-3,8.199947327E-2
9.488189063E0,-7.853138447E-2,1.050567627E-2,7.427288592E-2
9.493242657E0,-8.424019814E-2,5.618095398E-3,6.651683152E-2
9.498296250E0,-8.638536930E-2,-9.917259216E-3,8.152420819E-2
9.503349844E0,-9.575545788E-2,-6.344795227E-3,7.144428045E-2
9.508403438E0,-7.995367050E-2,3.153800964E-3,7.679970562E-2
9.513457032E0,-7.741641998E-2,-4.055976868E-3,6.193987280E-2
9.518510678E0,-7.608747482E-2,5.414009094E-3,6.259971857E-2
9.523564271E0,-8.531773090E-2,-1.796722412E-3,5.852143839E-2
9.528617865E0,-8.865606785E-2,-4.215240479E-3,6.517343223E-2
9.533671459E0,-7.533276081E-2,-3.049850464E-3,6.938621402E-2
9.538725053E0,-8.574140072E-2,1.680374146E-3,6.641136855E-2
9.543778646E0,-6.647670269E-2,9.922981262E-3,5.874310434E-2
9.548832240E0,-7.584750652E-2,-2.081871033E-3,5.223917589E-2
9.553885834E0,-7.800221443E-2,3.822326660E-3,4.578402638E-2
9.558939428E0,-5.297207832E-2,7.285118103E-3,3.935258836E-2
9.563993021E0,-4.215431213E-2,2.440452576E-3,2.821140736E-2
9.569046615E0,-4.700934887E-2,2.364158630E-3,6.442090962E-3
9.574100209E0,-5.774414539E-2,-9.578704834E-3,5.146966316E-3
9.579153803E0,-5.651891232E-2,-3.616333008E-3,-3.363303374E-3
9.584207448E0,-5.891013145E-2,-7.206916809E-3,-9.330429137E-3
9.589261042E0,-6.125128269E-2,-6.013870239E-3,-1.053563412E-2
9.594314636E0,-6.119883060E-2,-1.670360565E-2,-2.468871884E-2
9.599368230E0,-5.755567551E-2,2.377510071E-3,-2.345195971E-2
9.604421823E0,-6.818771362E-2,2.307891846E-3,-2.572294511E-2
9.609475417E0,-5.625188351E-2,-8.455276489E-3,-2.791844122E-2
9.614529011E0,-5.027580261E-2,1.055717468E-2,-2.291302755E-2
9.619582605E0,-4.667854309E-2,-2.635955811E-3,-2.040230110E-2
9.624636198E0,-3.961002827E-2,6.830215454E-3,-2.740909159E-2
9.629689792E0,-4.444122314E-2,-9.894371033E-3,-2.721819840E-2
9.634743386E0,-2.427351475E-2,-5.110740662E-3,-3.416818380E-2
9.639796980E0,-5.303418636E-2,-9.872436523E-3,-3.034470230E-2
9.644850573E0,-5.193841457E-2,2.016067505E-3,-2.176868729E-2
9.649904167E0,-3.899598122E-2,-7.563591003E-3,-2.761072293E-2
9.654957761E0,-4.868590832E-2,4.307746887E-3,-2.255492657E-2
9.660011407E0,-5.933165550E-2,6.656646729E-4,-2.480090782E-2
9.665065000E0,-5.465233326E-2,-8.903503418E-3,-3.173735365E-2
9.670118594E0,-5.467009544E-2,6.546020508E-3,-3.381113335E-2
9.675172188E0,-4.878211021E-2,5.244255066E-3,-2.289586887E-2
9.680225782E0,-4.064464569E-2,-1.148891449E-2,-4.520794004E-2
9.685279375E0,-4.669940472E-2,-9.073257446E-3,-5.187984928E-2
9.690332969E0,-5.262839794E-2,-5.483627319E-3,-3.714567795E-2
9.695386563E0,-4.433822632E-2,-5.493164062E-3,-3.908954188E-2
9.700440157E0,-5.395364761E-2,-3.130912781E-3,-5.053966865E-2
9.705493750E0,-4.801166058E-2,-7.829666138E-4,-5.592411757E-2
9.710547344E0,-5.041372776E-2,3.585815430E-4,-4.829011858E-2
9.715600938E0,-4.579377174E-2,1.572132111E-2,-5.250984803E-2
9.720654532E0,-4.474341869E-2,3.657341003E-3,-5.305796489E-2
9.725708178E0,-4.254484177E-2,7.122039795E-3,-5.128394067E-2
9.730761771E0,-3.914737701E-2,-3.684043884E-3,-4.837492853E-2
9.735815365E0,-4.169881344E-2,-4.900932312E-3,-3.358933330E-2
9.740868959E0,-4.069757462E-2,1.009941101E-3,-4.261184856E-2
9.745922553E0,-5.387413502E-2,1.400566101E-2,-3.381505609E-2
9.750976146E0,-4.310941696E-2,1.974105835E-3,-2.735076100E-2
9.756029740E0,-1.111233234E-2,-4.663467407E-4,-1.506576315E-2
9.761083334E0,-9.058475494E-3,1.135921478E-2,-2.306520939E-2
9.766136928E0,-3.505706787E-3,6.462097168E-3,-2.264333703E-2
9.771190521E0,1.624536514E-2,-2.451133728E-2,-1.630645618E-2
9.776244115E0,3.341281414E-2,-1.605892181E-2,-2.309165336E-2
9.781297709E0,6.710135937E-2,-1.004314423E-2,-1.909691095E-2
9.786351303E0,5.899178982E-2,-8.823394775E-3,-1.397668198E-2
9.791404948E0,8.884561062E-2,-4.063606262E-3,-1.362340152E-2
9.796458542E0,1.040855646E-1,7.766723633E-3,-1.452751830E-2
9.801512136E0,1.145704985E-1,2.892494202E-3,-9.379833937E-3
9.806565730E0,1.319851875E-1,2.794265747E-3,-1.024767943E-2
9.811619323E0,1.575191021E-1,-2.056121826E-3,-1.231654361E-2
9.816672917E0,1.851993799E-1,8.563995361E-3,-1.294928789E-2
9.821726511E0,1.829118729E-1,9.632110596E-5,6.543301046E-3
9.826780105E0,2.079912424E-1,-2.361297607E-3,6.729792804E-3
9.831833698E0,2.684136629E-1,-5.990982056E-3,3.184858710E-2
9.836887292E0,3.020963073E-1,-1.435279846E-2,2.118120715E-2
9.841940886E0,3.247697353E-1,-3.659248352E-3,1.409312896E-2
9.846994480E0,3.732646704E-1,6.937026978E-3,1.669435389E-2
9.852048073E0,4.344583750E-1,4.390716553E-3,4.185838997E-2
9.857101667E0,4.985828400E-1,1.847267151E-2,7.769373804E-2
9.862155313E0,5.537579060E-1,1.699161530E-2,1.321217567E-1
9.867208907E0,6.380748153E-1,1.271247864E-3,2.052617967E-1
9.872262500E0,7.347164154E-1,-4.823684692E-3,2.920444012E-1
9.877316094E0,8.149705529E-1,-3.818798065E-2,4.134343565E-1
9.882369688E0,9.951862693E-1,-3.213024139E-2,4.740076363E-1
9.887423282E0,1.055958629E0,-2.498054504E-2,4.183478653E-1
9.892476875E0,1.037802696E0,1.177883148E-2,2.455143183E-1
9.897530469E0,1.057588577E0,6.008720398E-2,1.492528170E-1
9.902584063E0,1.074699879E0,3.794384003E-2,6.941086799E-2
9.907637657E0,1.073485970E0,3.493976593E-2,3.395083826E-3
9.912691250E0,1.055497408E0,1.888942719E-2,9.850674542E-4
9.917744844E0,1.039987564E0,1.484394073E-2,5.591759831E-2
9.922798490E0,1.021886468E0,-1.072883606E-3,1.423150599E-1
9.927852084E0,1.010862827E0,-4.417514801E-2,2.584573627E-1
9.932905678E0,9.794346094E-1,-2.640342712E-2,2.723602057E-1
9.937959271E0,9.777041674E-1,-2.304267883E-2,2.455640137E-1
9.943012865E0,9.544851780E-1,4.023551941E-3,1.464064419E-1
9.948066459E0,9.217371941E-1,2.728652954E-2,1.363644563E-2
9.953120053E0,9.069021940E-1,4.084873199E-2,-9.993501008E-2
9.958173646E0,8.814617395E-1,6.854248047E-2,-1.528557837E-1
9.963227240E0,8.466308117E-1,5.920314789E-2,-1.598899066E-1
9.968280834E0,8.355600238E-1,2.143287659E-2,-1.062042713E-1
9.973334428E0,8.114178777E-1,6.528854370E-3,-1.152259856E-2
9.978388021E0,8.051170111E-1,-2.606296539E-2,6.669428200E-2
9.983441615E0,8.070726395E-1,-2.039909363E-2,8.825854212E-2
9.988495261E0,7.992739677E-1,-2.926826477E-3,6.194517389E-2
9.993548855E0,7.758520246E-1,1.438617706E-2,-2.467856742E-2
9.998602448E0,7.762911916E-1,3.749179840E-2,-1.319113821E-1
1.000365604E1,7.694077492E-1,5.802345276E-2,-2.416022867E-1
1.000870964E1,7.563593388E-1,5.700016022E-2,-2.929741442E-1
1.001376323E1,7.433737516E-1,4.055786133E-2,-2.689550817E-1
1.001881682E1,7.255213857E-1,2.661705017E-2,-1.961890906E-1
1.002387042E1,7.289735675E-1,9.164810181E-4,-8.032706380E-2
1.002892401E1,7.204052210E-1,-1.032447815E-2,-3.627993399E-3
1.003397760E1,6.949873567E-1,9.377479553E-3,2.108395845E-2
1.003903120E1,6.732063890E-1,1.823234558E-2,-1.396304183E-2
1.004408479E1,6.561737657E-1,3.532314301E-2,-9.040016681E-2
1.004913839E1,6.366519332E-1,5.345153809E-2,-2.064283490E-1
1.005419198E1,6.077199578E-1,5.006599426E-2,-2.996636331E-1
1.005924562E1,5.895761251E-1,5.146026611E-2,-3.419653177E-1
1.006429922E1,5.549184084E-1,6.115818024E-2,-3.052358031E-1
1.006935281E1,5.572271943E-1,6.009674072E-2,-2.142068446E-1
1.007440641E1,5.201161504E-1,3.886127472E-2,-1.048998982E-1
1.007946000E1,4.997215271E-1,3.323268890E-2,-8.725216612E-3
1.008451359E1,4.758593440E-1,3.121948242E-2,1.754687726E-2
1.008956719E1,4.651322365E-1,4.822063446E-2,-1.369457506E-2
1.009462078E1,4.507815242E-1,4.609012604E-2,-1.003732830E-1
1.009967438E1,4.436417222E-1,4.755115509E-2,-1.980043501E-1
1.010472797E1,4.421639740E-1,6.798553467E-2,-2.636888623E-1
1.010978156E1,4.099240899E-1,9.301757812E-2,-2.679397464E-1
1.011483516E1,3.956369162E-1,7.867431641E-2,-2.019064128E-1
1.011988880E1,3.860045671E-1,7.869911194E-2,-1.066756099E-1
1.012494240E1,3.929798305E-1,5.617809296E-2,1.487044431E-2
